,ts,id,Gx,Gy,Gz,Ax,Ay,Az
0,-0.321,IMU0,4.939024390243903,-4.939024390243903,0.24390243902439027,-1.1708984375,-0.0625,0.048828125
1,-0.321,IMU1,4.451219512195122,-3.353658536585366,-0.48780487804878053,-1.171875,-0.0498046875,0.0205078125
2,-0.321,IMU2,4.817073170731708,-4.024390243902439,-0.06097560975609757,-1.146484375,-0.0576171875,0.0380859375
3,-0.311,IMU0,5.914634146341464,-4.390243902439025,0.426829268292683,-1.154296875,-0.0576171875,-0.0732421875
4,-0.311,IMU1,5.426829268292684,-2.987804878048781,-0.24390243902439027,-1.1572265625,-0.0458984375,-0.10546875
5,-0.311,IMU2,6.158536585365854,-3.1097560975609757,-0.12195121951219513,-1.1435546875,-0.044921875,-0.08984375
6,-0.301,IMU0,5.670731707317073,-1.0975609756097562,0.426829268292683,-1.1357421875,-0.0234375,-0.1083984375
7,-0.301,IMU1,5.121951219512195,0.30487804878048785,-0.24390243902439027,-1.1357421875,-0.0078125,-0.134765625
8,-0.301,IMU2,5.609756097560976,0.3658536585365854,0.0,-1.1328125,-0.0302734375,-0.1064453125
9,-0.291,IMU0,2.8658536585365857,2.8658536585365857,-0.06097560975609757,-1.15234375,-0.0458984375,-0.01171875
10,-0.291,IMU1,2.439024390243903,4.2682926829268295,-0.7317073170731708,-1.15234375,-0.033203125,-0.037109375
11,-0.291,IMU2,2.6219512195121952,3.780487804878049,-0.3658536585365854,-1.1435546875,-0.046875,-0.0029296875
12,-0.281,IMU0,3.048780487804878,1.2804878048780488,-0.12195121951219513,-1.16796875,-0.0634765625,0.0888671875
13,-0.281,IMU1,2.439024390243903,2.804878048780488,-0.7317073170731708,-1.1689453125,-0.0498046875,0.0615234375
14,-0.281,IMU2,2.9268292682926833,1.8902439024390245,-0.48780487804878053,-1.1591796875,-0.0615234375,0.0810546875
15,-0.271,IMU0,0.426829268292683,-3.7195121951219514,0.1829268292682927,-1.173828125,0.0087890625,0.0009765625
16,-0.271,IMU1,-0.06097560975609757,-2.25609756097561,-0.426829268292683,-1.1728515625,0.0224609375,-0.021484375
17,-0.271,IMU2,0.06097560975609757,-2.682926829268293,-0.1829268292682927,-1.1611328125,0.0048828125,-0.0107421875
18,-0.261,IMU0,-2.682926829268293,-0.7317073170731708,0.06097560975609757,-1.2060546875,-0.0048828125,0.0
19,-0.261,IMU1,-3.1707317073170733,0.6097560975609757,-0.48780487804878053,-1.205078125,0.0078125,-0.029296875
20,-0.261,IMU2,-2.682926829268293,0.1829268292682927,-0.24390243902439027,-1.201171875,-0.00390625,-0.0068359375
21,-0.251,IMU0,-2.3170731707317076,-2.3170731707317076,-0.1829268292682927,-1.2822265625,-0.0302734375,-0.029296875
22,-0.251,IMU1,-2.9268292682926833,-0.853658536585366,-0.7317073170731708,-1.279296875,-0.0166015625,-0.0576171875
23,-0.251,IMU2,-2.3170731707317076,-1.402439024390244,-0.48780487804878053,-1.2744140625,-0.0263671875,-0.03125
24,-0.241,IMU0,-4.207317073170732,-2.25609756097561,-0.3658536585365854,-1.427734375,-0.1005859375,-0.09375
25,-0.241,IMU1,-4.634146341463415,-0.7926829268292683,-0.853658536585366,-1.412109375,-0.08984375,-0.1142578125
26,-0.241,IMU2,-4.2682926829268295,-1.1585365853658538,-0.7926829268292683,-1.4033203125,-0.099609375,-0.0888671875
27,-0.231,IMU0,-2.0121951219512195,2.5609756097560976,-2.073170731707317,-1.482421875,-0.05859375,-0.05078125
28,-0.231,IMU1,-2.5609756097560976,3.8414634146341466,-2.6219512195121952,-1.4755859375,-0.0537109375,-0.0908203125
29,-0.231,IMU2,-2.073170731707317,3.2926829268292686,-2.439024390243903,-1.470703125,-0.0654296875,-0.0751953125
30,-0.221,IMU0,-1.707317073170732,6.463414634146342,-2.25609756097561,-1.54296875,-0.0166015625,0.0927734375
31,-0.221,IMU1,-2.3170731707317076,7.926829268292684,-2.7439024390243905,-1.5302734375,-0.0078125,0.0498046875
32,-0.221,IMU2,-1.7682926829268295,7.439024390243903,-2.5,-1.5224609375,-0.01953125,0.0693359375
33,-0.211,IMU0,-6.402439024390245,0.7317073170731708,-0.853658536585366,-1.7041015625,-0.103515625,0.2021484375
34,-0.211,IMU1,-7.01219512195122,2.439024390243903,-1.2804878048780488,-1.6962890625,-0.1005859375,0.17578125
35,-0.211,IMU2,-6.341463414634147,2.0121951219512195,-1.0975609756097562,-1.689453125,-0.111328125,0.1982421875
36,-0.201,IMU0,-6.646341463414635,-9.146341463414634,0.9756097560975611,-1.7822265625,-0.1796875,0.0380859375
37,-0.201,IMU1,-7.195121951219513,-7.560975609756098,0.48780487804878053,-1.775390625,-0.1611328125,0.01953125
38,-0.201,IMU2,-6.463414634146342,-8.048780487804878,0.6097560975609757,-1.7705078125,-0.1708984375,0.0419921875
39,-0.191,IMU0,-3.7195121951219514,-7.987804878048781,-1.402439024390244,-1.8369140625,-0.087890625,-0.234375
40,-0.191,IMU1,-4.329268292682928,-6.951219512195123,-1.8902439024390245,-1.8310546875,-0.0869140625,-0.267578125
41,-0.191,IMU2,-3.7195121951219514,-7.378048780487806,-1.7682926829268295,-1.8271484375,-0.095703125,-0.2470703125
42,-0.181,IMU0,-3.4756097560975614,14.51219512195122,-1.5853658536585367,-2.0078125,0.0009765625,-0.056640625
43,-0.181,IMU1,-4.207317073170732,15.54878048780488,-1.9512195121951221,-1.99609375,0.005859375,-0.103515625
44,-0.181,IMU2,-3.5975609756097566,15.060975609756099,-1.7682926829268295,-1.9912109375,-0.001953125,-0.0810546875
45,-0.171,IMU0,-7.25609756097561,9.329268292682928,0.6707317073170732,-2.2841796875,-0.05078125,0.2607421875
46,-0.171,IMU1,-7.865853658536586,11.402439024390246,0.1829268292682927,-2.2763671875,-0.029296875,0.2265625
47,-0.171,IMU2,-7.134146341463415,10.731707317073171,0.426829268292683,-2.26953125,-0.0400390625,0.25
48,-0.161,IMU0,-3.5975609756097566,-10.670731707317074,0.853658536585366,-2.34375,-0.068359375,0.1123046875
49,-0.161,IMU1,-4.2682926829268295,-8.78048780487805,0.1829268292682927,-2.3408203125,-0.0595703125,0.09375
50,-0.161,IMU2,-3.658536585365854,-9.26829268292683,0.3658536585365854,-2.33203125,-0.0673828125,0.11328125
51,-0.151,IMU0,-2.9268292682926833,-5.853658536585367,0.48780487804878053,-2.3984375,-0.091796875,-0.16015625
52,-0.151,IMU1,-3.2926829268292686,-4.817073170731708,-0.06097560975609757,-2.40234375,-0.0859375,-0.1845703125
53,-0.151,IMU2,-2.8658536585365857,-5.2439024390243905,0.1829268292682927,-2.3974609375,-0.091796875,-0.150390625
54,-0.141,IMU0,-8.719512195121952,5.426829268292684,0.12195121951219513,-2.55859375,-0.048828125,-0.072265625
55,-0.141,IMU1,-9.329268292682928,6.52439024390244,-0.1829268292682927,-2.5478515625,-0.0341796875,-0.1123046875
56,-0.141,IMU2,-8.719512195121952,6.036585365853659,-0.06097560975609757,-2.5478515625,-0.0419921875,-0.083984375
57,-0.131,IMU0,-5.060975609756098,2.1951219512195124,-0.24390243902439027,-2.65234375,-0.04296875,0.048828125
58,-0.131,IMU1,-5.731707317073171,3.9024390243902443,-0.6707317073170732,-2.681640625,-0.0283203125,0.0166015625
59,-0.131,IMU2,-5.121951219512195,3.414634146341464,-0.5487804878048781,-2.66796875,-0.037109375,0.041015625
60,-0.121,IMU0,-5.3048780487804885,-7.134146341463415,0.06097560975609757,-2.4443359375,-0.0615234375,0.04296875
61,-0.121,IMU1,-5.853658536585367,-5.853658536585367,-0.5487804878048781,-2.455078125,-0.037109375,0.01171875
62,-0.121,IMU2,-5.3048780487804885,-6.2804878048780495,-0.426829268292683,-2.4482421875,-0.0498046875,0.0390625
63,-0.111,IMU0,-4.939024390243903,-0.48780487804878053,-1.0365853658536586,-2.4130859375,-0.03515625,-0.0322265625
64,-0.111,IMU1,-5.426829268292684,0.3658536585365854,-1.524390243902439,-2.3935546875,-0.03125,-0.0703125
65,-0.111,IMU2,-4.939024390243903,0.12195121951219513,-1.3414634146341464,-2.396484375,-0.0361328125,-0.0380859375
66,-0.101,IMU0,-7.987804878048781,7.378048780487806,-1.3414634146341464,-2.9609375,-0.0498046875,-0.0322265625
67,-0.101,IMU1,-8.841463414634147,9.085365853658537,-1.6463414634146343,-2.9375,-0.041015625,-0.0380859375
68,-0.101,IMU2,-8.048780487804878,8.658536585365855,-1.4634146341463417,-2.9384765625,-0.046875,-0.0029296875
69,-0.091,IMU0,-10.792682926829269,3.780487804878049,-1.7682926829268295,-3.3134765625,-0.111328125,0.033203125
70,-0.091,IMU1,-11.951219512195124,5.975609756097562,-2.0121951219512195,-3.3115234375,-0.1103515625,0.0107421875
71,-0.091,IMU2,-11.097560975609756,5.2439024390243905,-1.8902439024390245,-3.3115234375,-0.115234375,0.033203125
72,-0.081,IMU0,-10.365853658536587,1.524390243902439,-1.5853658536585367,-3.494140625,0.0634765625,-0.0576171875
73,-0.081,IMU1,-11.402439024390246,2.5609756097560976,-2.1341463414634148,-3.470703125,0.0732421875,-0.05859375
74,-0.081,IMU2,-10.670731707317074,2.378048780487805,-1.9512195121951221,-3.4697265625,0.064453125,-0.046875
75,-0.071,IMU0,-13.597560975609758,6.52439024390244,-0.30487804878048785,-4.0595703125,0.068359375,-0.02734375
76,-0.071,IMU1,-13.719512195121952,7.8048780487804885,-0.9756097560975611,-4.0751953125,0.07421875,-0.005859375
77,-0.071,IMU2,-13.29268292682927,7.500000000000001,-0.7317073170731708,-4.0576171875,0.0673828125,0.0126953125
78,-0.061,IMU0,-17.134146341463417,-1.1585365853658538,-0.5487804878048781,-4.1552734375,-0.2353515625,0.162109375
79,-0.061,IMU1,-17.926829268292686,0.6707317073170732,-0.7926829268292683,-4.169921875,-0.208984375,0.0458984375
80,-0.061,IMU2,-17.195121951219512,0.1829268292682927,-0.7317073170731708,-4.1513671875,-0.2255859375,0.1337890625
81,-0.051,IMU0,-4.207317073170732,-5.0,-1.524390243902439,-4.169921875,-0.0244140625,-0.1171875
82,-0.051,IMU1,-4.329268292682928,-3.1097560975609757,-2.1951219512195124,-4.177734375,-0.03515625,-0.189453125
83,-0.051,IMU2,-4.695121951219512,-4.329268292682928,-1.9512195121951221,-4.166015625,-0.0302734375,-0.1533203125
84,-0.041,IMU0,-9.207317073170733,5.121951219512195,-0.24390243902439027,-4.3154296875,-0.009765625,-0.1142578125
85,-0.041,IMU1,-10.426829268292684,6.52439024390244,-0.6707317073170732,-4.2861328125,0.00390625,-0.1396484375
86,-0.041,IMU2,-8.78048780487805,6.036585365853659,-0.6097560975609757,-4.2890625,-0.005859375,-0.091796875
87,-0.031,IMU0,-15.426829268292684,3.4756097560975614,-0.30487804878048785,-4.4091796875,-0.171875,-0.0107421875
88,-0.031,IMU1,-15.54878048780488,4.634146341463415,-0.7317073170731708,-4.4052734375,-0.1630859375,-0.056640625
89,-0.031,IMU2,-15.487804878048783,4.51219512195122,-0.48780487804878053,-4.3994140625,-0.16796875,-0.0341796875
90,-0.021,IMU0,-0.7926829268292683,-0.6707317073170732,-0.24390243902439027,-4.53515625,-0.078125,-0.068359375
91,-0.021,IMU1,-1.2195121951219514,0.7317073170731708,-0.853658536585366,-4.5205078125,-0.0771484375,-0.09765625
92,-0.021,IMU2,-0.9756097560975611,0.426829268292683,-0.6097560975609757,-4.51953125,-0.0771484375,-0.0732421875
93,-0.011,IMU0,-7.195121951219513,-0.7317073170731708,0.0,-4.650390625,-0.099609375,-0.1611328125
94,-0.011,IMU1,-8.170731707317074,0.9756097560975611,-0.5487804878048781,-4.6484375,-0.1005859375,-0.1748046875
95,-0.011,IMU2,-6.707317073170732,0.1829268292682927,-0.30487804878048785,-4.634765625,-0.0947265625,-0.1259765625
96,-0.001,IMU0,-4.939024390243903,5.487804878048781,-0.1829268292682927,-4.7587890625,-0.0439453125,-0.0556640625
97,-0.001,IMU1,-5.182926829268293,6.951219512195123,-0.6707317073170732,-4.7529296875,-0.041015625,-0.083984375
98,-0.001,IMU2,-5.121951219512195,6.341463414634147,-0.48780487804878053,-4.7451171875,-0.041015625,-0.076171875
99,0.009,IMU0,1.0975609756097562,-0.853658536585366,0.3658536585365854,-4.9716796875,-0.0380859375,-0.021484375
100,0.009,IMU1,0.6097560975609757,0.30487804878048785,-0.30487804878048785,-4.96484375,-0.0302734375,-0.0693359375
101,0.009,IMU2,1.2195121951219514,0.426829268292683,-0.06097560975609757,-4.958984375,-0.0390625,-0.0126953125
102,0.019,IMU0,-3.658536585365854,-3.231707317073171,0.9146341463414634,-5.1103515625,-0.0380859375,-0.1796875
103,0.019,IMU1,-4.207317073170732,-1.5853658536585367,0.30487804878048785,-5.10546875,-0.0400390625,-0.2373046875
104,0.019,IMU2,-3.4756097560975614,-2.5,0.48780487804878053,-5.0966796875,-0.0341796875,-0.1708984375
105,0.029,IMU0,-1.6463414634146343,3.780487804878049,0.24390243902439027,-5.2890625,-0.1533203125,-0.12890625
106,0.029,IMU1,-2.1951219512195124,5.182926829268293,-0.426829268292683,-5.2919921875,-0.1474609375,-0.181640625
107,0.029,IMU2,-1.5853658536585367,4.573170731707317,-0.1829268292682927,-5.26953125,-0.15234375,-0.1171875
108,0.039,IMU0,2.378048780487805,-0.06097560975609757,-0.6097560975609757,-5.45703125,-0.0986328125,-0.1083984375
109,0.039,IMU1,1.829268292682927,1.3414634146341464,-1.402439024390244,-5.455078125,-0.087890625,-0.1533203125
110,0.039,IMU2,2.25609756097561,1.1585365853658538,-1.0365853658536586,-5.443359375,-0.1005859375,-0.0888671875
111,0.049,IMU0,0.48780487804878053,-2.5609756097560976,-0.6097560975609757,-5.615234375,-0.044921875,-0.2568359375
112,0.049,IMU1,-0.1829268292682927,-1.0975609756097562,-1.2804878048780488,-5.609375,-0.0439453125,-0.2724609375
113,0.049,IMU2,0.6097560975609757,-1.6463414634146343,-0.9756097560975611,-5.603515625,-0.041015625,-0.232421875
114,0.059,IMU0,-2.25609756097561,6.2804878048780495,-0.7317073170731708,-5.8466796875,-0.0029296875,-0.20703125
115,0.059,IMU1,-2.8658536585365857,7.8048780487804885,-1.2804878048780488,-5.8427734375,-0.00390625,-0.21484375
116,0.059,IMU2,-2.378048780487805,6.951219512195123,-1.0975609756097562,-5.822265625,-0.0009765625,-0.201171875
117,0.069,IMU0,-1.5853658536585367,4.939024390243903,-0.6097560975609757,-6.048828125,-0.0322265625,-0.1337890625
118,0.069,IMU1,-2.25609756097561,6.158536585365854,-1.1585365853658538,-6.0419921875,-0.0322265625,-0.1376953125
119,0.069,IMU2,-1.5853658536585367,5.853658536585367,-0.9756097560975611,-6.03125,-0.029296875,-0.1279296875
120,0.079,IMU0,-2.5609756097560976,2.987804878048781,-0.6707317073170732,-6.21875,-0.197265625,-0.14453125
121,0.079,IMU1,-3.1097560975609757,4.451219512195122,-1.2195121951219514,-6.2138671875,-0.1953125,-0.166015625
122,0.079,IMU2,-2.682926829268293,3.780487804878049,-0.9146341463414634,-6.203125,-0.19921875,-0.1298828125
123,0.089,IMU0,1.707317073170732,4.2682926829268295,-1.0365853658536586,-6.4130859375,-0.1015625,-0.08203125
124,0.089,IMU1,1.0975609756097562,5.731707317073171,-1.5853658536585367,-6.4033203125,-0.0966796875,-0.109375
125,0.089,IMU2,1.5853658536585367,5.182926829268293,-1.402439024390244,-6.3974609375,-0.103515625,-0.068359375
126,0.099,IMU0,2.6219512195121952,-1.1585365853658538,-0.5487804878048781,-6.650390625,0.0029296875,-0.1162109375
127,0.099,IMU1,2.0121951219512195,0.12195121951219513,-1.2195121951219514,-6.64453125,0.0107421875,-0.1474609375
128,0.099,IMU2,2.6219512195121952,0.0,-0.9756097560975611,-6.6298828125,-0.0029296875,-0.0888671875
129,0.109,IMU0,1.8902439024390245,-4.207317073170732,0.853658536585366,-6.78125,0.00390625,-0.2705078125
130,0.109,IMU1,1.2195121951219514,-2.682926829268293,0.30487804878048785,-6.763671875,-0.0009765625,-0.2880859375
131,0.109,IMU2,1.9512195121951221,-3.2926829268292686,0.3658536585365854,-6.75390625,0.01171875,-0.244140625
132,0.119,IMU0,-1.4634146341463417,2.0121951219512195,0.30487804878048785,-6.9794921875,-0.2666015625,-0.271484375
133,0.119,IMU1,-1.8902439024390245,3.414634146341464,-0.24390243902439027,-6.970703125,-0.267578125,-0.3017578125
134,0.119,IMU2,-1.6463414634146343,2.682926829268293,0.0,-6.9619140625,-0.2626953125,-0.279296875
135,0.129,IMU0,10.609756097560977,5.2439024390243905,0.1829268292682927,-7.1669921875,0.0166015625,-0.2177734375
136,0.129,IMU1,10.182926829268293,6.890243902439025,-0.48780487804878053,-7.15625,0.0146484375,-0.2333984375
137,0.129,IMU2,10.30487804878049,6.402439024390245,-0.3658536585365854,-7.1298828125,0.0146484375,-0.20703125
138,0.139,IMU0,9.207317073170733,3.9024390243902443,0.1829268292682927,-7.447265625,0.0419921875,-0.240234375
139,0.139,IMU1,8.658536585365855,5.426829268292684,-0.5487804878048781,-7.435546875,0.0458984375,-0.2451171875
140,0.139,IMU2,9.26829268292683,5.060975609756098,-0.3658536585365854,-7.4248046875,0.03125,-0.2158203125
141,0.149,IMU0,8.414634146341465,2.439024390243903,2.8658536585365857,-7.65234375,0.11328125,-0.2705078125
142,0.149,IMU1,7.682926829268293,3.8414634146341466,2.073170731707317,-7.6357421875,0.111328125,-0.28515625
143,0.149,IMU2,8.292682926829269,3.414634146341464,2.1951219512195124,-7.6240234375,0.1181640625,-0.2373046875
144,0.159,IMU0,5.7926829268292686,3.536585365853659,1.5853658536585367,-7.833984375,-0.234375,-0.2392578125
145,0.159,IMU1,5.121951219512195,5.0,0.853658536585366,-7.826171875,-0.234375,-0.26171875
146,0.159,IMU2,5.914634146341464,4.329268292682928,1.2195121951219514,-7.8232421875,-0.236328125,-0.1884765625
147,0.169,IMU0,14.085365853658537,-0.24390243902439027,-0.9756097560975611,-8.08203125,0.0888671875,-0.2451171875
148,0.169,IMU1,13.536585365853659,1.2804878048780488,-1.7682926829268295,-8.0615234375,0.091796875,-0.27734375
149,0.169,IMU2,13.719512195121952,1.1585365853658538,-1.4634146341463417,-8.060546875,0.0791015625,-0.2333984375
150,0.179,IMU0,7.926829268292684,-1.0975609756097562,1.4634146341463417,-8.1552734375,-0.1220703125,-0.3486328125
151,0.179,IMU1,7.073170731707318,0.12195121951219513,0.6707317073170732,-8.138671875,-0.126953125,-0.3427734375
152,0.179,IMU2,8.231707317073171,-0.6097560975609757,0.9756097560975611,-8.130859375,-0.1044921875,-0.27734375
153,0.189,IMU0,4.695121951219512,0.853658536585366,-3.353658536585366,-8.4375,0.177734375,-0.197265625
154,0.189,IMU1,4.207317073170732,2.439024390243903,-4.085365853658537,-8.4130859375,0.1767578125,-0.2373046875
155,0.189,IMU2,4.390243902439025,2.6219512195121952,-3.963414634146342,-8.4013671875,0.1611328125,-0.2294921875
156,0.199,IMU0,9.756097560975611,-1.7682926829268295,3.1707317073170733,-8.48828125,-0.2880859375,-0.349609375
157,0.199,IMU1,9.02439024390244,-0.5487804878048781,2.378048780487805,-8.470703125,-0.2900390625,-0.3369140625
158,0.199,IMU2,9.939024390243903,-1.402439024390244,2.6219512195121952,-8.462890625,-0.2626953125,-0.2919921875
159,0.209,IMU0,-0.853658536585366,10.182926829268293,-1.3414634146341464,-8.7578125,-0.3291015625,-0.0185546875
160,0.209,IMU1,-1.5853658536585367,11.646341463414634,-1.8902439024390245,-8.736328125,-0.3330078125,-0.0625
161,0.209,IMU2,-1.2195121951219514,11.219512195121952,-1.707317073170732,-8.72265625,-0.3427734375,-0.0546875
162,0.219,IMU0,20.0,-5.426829268292684,3.5975609756097566,-8.8408203125,-0.03515625,-0.201171875
163,0.219,IMU1,19.390243902439025,-3.963414634146342,2.6219512195121952,-8.8203125,-0.037109375,-0.2060546875
164,0.219,IMU2,19.878048780487806,-4.329268292682928,2.804878048780488,-8.822265625,-0.029296875,-0.1416015625
165,0.229,IMU0,1.9512195121951221,1.707317073170732,-1.0975609756097562,-9.0673828125,-0.166015625,-0.3046875
166,0.229,IMU1,1.4634146341463417,3.231707317073171,-1.707317073170732,-9.0517578125,-0.1748046875,-0.3134765625
167,0.229,IMU2,2.1951219512195124,2.9268292682926833,-1.4634146341463417,-9.0546875,-0.1796875,-0.25390625
168,0.239,IMU0,18.719512195121954,-4.878048780487806,1.524390243902439,-9.08984375,0.4873046875,-0.384765625
169,0.239,IMU1,17.98780487804878,-3.231707317073171,0.426829268292683,-9.0546875,0.482421875,-0.4228515625
170,0.239,IMU2,18.10975609756098,-3.7195121951219514,0.6707317073170732,-9.0419921875,0.4814453125,-0.400390625
171,0.249,IMU0,-2.1951219512195124,10.365853658536587,3.7195121951219514,-9.3046875,-0.4404296875,-0.1767578125
172,0.249,IMU1,-2.5609756097560976,11.585365853658537,3.231707317073171,-9.2841796875,-0.4384765625,-0.18359375
173,0.249,IMU2,-1.524390243902439,10.792682926829269,3.5975609756097566,-9.2880859375,-0.4287109375,-0.1220703125
174,0.259,IMU0,2.987804878048781,-9.634146341463415,-0.24390243902439027,-9.4072265625,-0.029296875,-0.2373046875
175,0.259,IMU1,2.25609756097561,-8.109756097560977,-1.0365853658536586,-9.3896484375,-0.0361328125,-0.2783203125
176,0.259,IMU2,2.6219512195121952,-8.475609756097562,-0.853658536585366,-9.3916015625,-0.03515625,-0.251953125
177,0.269,IMU0,20.365853658536587,-1.0365853658536586,0.48780487804878053,-9.5673828125,0.041015625,-0.46875
178,0.269,IMU1,20.0609756097561,0.5487804878048781,-0.48780487804878053,-9.55078125,0.033203125,-0.455078125
179,0.269,IMU2,20.54878048780488,0.24390243902439027,-0.1829268292682927,-9.5537109375,0.03515625,-0.388671875
180,0.279,IMU0,-2.25609756097561,-2.1951219512195124,1.9512195121951221,-9.7685546875,0.02734375,-0.4677734375
181,0.279,IMU1,-2.378048780487805,-0.7926829268292683,1.402439024390244,-9.7412109375,0.033203125,-0.4521484375
182,0.279,IMU2,-1.5853658536585367,-1.3414634146341464,1.524390243902439,-9.7412109375,0.0390625,-0.373046875
183,0.289,IMU0,-2.987804878048781,5.670731707317073,-1.1585365853658538,-9.841796875,0.0166015625,-0.26171875
184,0.289,IMU1,-3.963414634146342,6.7682926829268295,-1.707317073170732,-9.7939453125,0.0087890625,-0.31640625
185,0.289,IMU2,-3.414634146341464,6.2804878048780495,-1.4634146341463417,-9.7919921875,0.0126953125,-0.287109375
186,0.299,IMU0,2.439024390243903,3.5975609756097566,1.8902439024390245,-10.1943359375,0.029296875,0.0107421875
187,0.299,IMU1,2.1341463414634148,6.097560975609756,1.1585365853658538,-10.17578125,0.0107421875,0.0322265625
188,0.299,IMU2,2.7439024390243905,5.609756097560976,1.402439024390244,-10.17578125,0.0166015625,0.10546875
189,0.309,IMU0,-17.31707317073171,-20.975609756097562,0.6097560975609757,-10.1201171875,0.20703125,-0.673828125
190,0.309,IMU1,-17.5,-19.634146341463417,-0.06097560975609757,-10.09765625,0.2001953125,-0.66015625
191,0.309,IMU2,-16.82926829268293,-20.243902439024392,0.0,-10.09765625,0.2060546875,-0.60546875
192,0.319,IMU0,-21.219512195121954,11.28048780487805,1.4634146341463417,-10.13671875,-0.08984375,-0.6015625
193,0.319,IMU1,-22.31707317073171,12.073170731707318,1.2804878048780488,-10.08984375,-0.0947265625,-0.5947265625
194,0.319,IMU2,-21.158536585365855,11.76829268292683,1.3414634146341464,-10.103515625,-0.0908203125,-0.5751953125
195,0.329,IMU0,-12.073170731707318,13.902439024390246,-1.5853658536585367,-10.34375,-0.0009765625,-0.244140625
196,0.329,IMU1,-13.109756097560977,15.426829268292684,-1.9512195121951221,-10.3037109375,-0.0205078125,-0.2646484375
197,0.329,IMU2,-12.317073170731708,15.060975609756099,-1.7682926829268295,-10.3125,-0.0126953125,-0.2265625
198,0.339,IMU0,-17.682926829268293,7.378048780487806,-0.3658536585365854,-10.4873046875,0.0869140625,-0.0146484375
199,0.339,IMU1,-18.170731707317074,9.390243902439025,-0.7926829268292683,-10.4423828125,0.0634765625,-0.044921875
200,0.339,IMU2,-17.378048780487806,8.597560975609756,-0.6707317073170732,-10.439453125,0.0634765625,0.041015625
201,0.349,IMU0,-33.170731707317074,-0.3658536585365854,-2.3170731707317076,-10.4482421875,-0.1240234375,-0.05859375
202,0.349,IMU1,-33.59756097560976,0.9146341463414634,-2.378048780487805,-10.41015625,-0.1044921875,-0.126953125
203,0.349,IMU2,-32.987804878048784,0.3658536585365854,-2.439024390243903,-10.4072265625,-0.0966796875,-0.08203125
204,0.359,IMU0,-23.231707317073173,-6.890243902439025,-0.7926829268292683,-10.5625,0.3828125,-0.2431640625
205,0.359,IMU1,-24.02439024390244,-4.634146341463415,-1.3414634146341464,-10.5615234375,0.4150390625,-0.3046875
206,0.359,IMU2,-23.29268292682927,-5.487804878048781,-1.2195121951219514,-10.556640625,0.4306640625,-0.26953125
207,0.369,IMU0,-29.634146341463417,-16.158536585365855,3.780487804878049,-10.517578125,0.734375,-0.8798828125
208,0.369,IMU1,-29.573170731707318,-14.573170731707318,3.048780487804878,-10.4794921875,0.7353515625,-0.8740234375
209,0.369,IMU2,-29.08536585365854,-15.243902439024392,3.1707317073170733,-10.4755859375,0.7275390625,-0.7822265625
210,0.379,IMU0,-44.451219512195124,-3.231707317073171,4.329268292682928,-10.4638671875,-0.2060546875,-1.095703125
211,0.379,IMU1,-45.487804878048784,-3.1707317073170733,4.451219512195122,-10.416015625,-0.2451171875,-1.1611328125
212,0.379,IMU2,-44.451219512195124,-3.353658536585366,4.329268292682928,-10.4345703125,-0.244140625,-1.060546875
213,0.389,IMU0,-15.426829268292684,26.03658536585366,-1.2804878048780488,-10.6611328125,-0.4169921875,-0.55859375
214,0.389,IMU1,-17.5,27.500000000000004,-1.3414634146341464,-10.63671875,-0.435546875,-0.62890625
215,0.389,IMU2,-15.975609756097562,27.195121951219516,-1.2195121951219514,-10.634765625,-0.4248046875,-0.591796875
216,0.399,IMU0,3.1097560975609757,5.060975609756098,-6.890243902439025,-10.767578125,0.1103515625,-0.2626953125
217,0.399,IMU1,2.1951219512195124,5.548780487804878,-7.560975609756098,-10.7412109375,0.1728515625,-0.3125
218,0.399,IMU2,2.439024390243903,4.878048780487806,-7.317073170731708,-10.734375,0.201171875,-0.2490234375
219,0.409,IMU0,-15.79268292682927,10.426829268292684,-3.536585365853659,-10.6591796875,0.1630859375,-0.1728515625
220,0.409,IMU1,-17.5609756097561,12.621951219512196,-3.9024390243902443,-10.6923828125,0.09375,-0.06640625
221,0.409,IMU2,-17.439024390243905,12.317073170731708,-3.7195121951219514,-10.705078125,0.0859375,0.005859375
222,0.419,IMU0,-25.48780487804878,-4.085365853658537,-4.207317073170732,-10.9921875,-0.05078125,0.2548828125
223,0.419,IMU1,-25.54878048780488,-4.878048780487806,-4.75609756097561,-10.953125,-0.041015625,0.1748046875
224,0.419,IMU2,-24.390243902439025,-6.402439024390245,-4.817073170731708,-10.9990234375,-0.0234375,0.255859375
225,0.429,IMU0,5.121951219512195,-39.146341463414636,-0.48780487804878053,-10.8994140625,0.85546875,-0.58203125
226,0.429,IMU1,3.9024390243902443,-38.71951219512196,-0.6707317073170732,-10.818359375,0.8623046875,-0.7158203125
227,0.429,IMU2,3.9024390243902443,-39.57317073170732,-0.1829268292682927,-10.79296875,0.85546875,-0.712890625
228,0.439,IMU0,-34.63414634146342,-26.158536585365855,5.060975609756098,-10.5625,-0.2548828125,-1.23046875
229,0.439,IMU1,-38.65853658536586,-22.500000000000004,4.390243902439025,-10.4990234375,-0.3857421875,-1.2578125
230,0.439,IMU2,-39.57317073170732,-21.82926829268293,4.085365853658537,-10.5126953125,-0.4169921875,-1.212890625
231,0.449,IMU0,-32.6219512195122,35.0609756097561,-6.097560975609756,-10.8505859375,-0.5703125,-0.482421875
232,0.449,IMU1,-29.634146341463417,38.71951219512196,-6.158536585365854,-10.8857421875,-0.521484375,-0.431640625
233,0.449,IMU2,-26.58536585365854,39.451219512195124,-6.097560975609756,-10.9150390625,-0.4833984375,-0.43359375
234,0.459,IMU0,12.500000000000002,2.8658536585365857,-2.8658536585365857,-11.17578125,0.9619140625,-0.162109375
235,0.459,IMU1,12.134146341463415,1.1585365853658538,-2.804878048780488,-11.1103515625,0.9892578125,-0.173828125
236,0.459,IMU2,12.439024390243903,-1.5853658536585367,-1.8902439024390245,-11.046875,1.015625,-0.15234375
237,0.469,IMU0,-36.890243902439025,-18.84146341463415,6.463414634146342,-10.75,0.3427734375,-1.0810546875
238,0.469,IMU1,-41.524390243902445,-15.54878048780488,5.975609756097562,-10.7080078125,0.24609375,-0.943359375
239,0.469,IMU2,-42.86585365853659,-14.51219512195122,5.853658536585367,-10.6953125,0.1708984375,-0.8837890625
240,0.479,IMU0,-58.84146341463415,28.658536585365855,1.2195121951219514,-10.9970703125,-0.748046875,-0.32421875
241,0.479,IMU1,-58.65853658536586,30.914634146341466,1.0365853658536586,-11.001953125,-0.7451171875,-0.2412109375
242,0.479,IMU2,-56.03658536585366,30.670731707317074,0.6097560975609757,-11.0673828125,-0.744140625,-0.1689453125
243,0.489,IMU0,-10.914634146341465,4.329268292682928,-4.2682926829268295,-11.3046875,-0.1650390625,-0.0048828125
244,0.489,IMU1,-9.756097560975611,4.146341463414634,-4.75609756097561,-11.263671875,-0.123046875,-0.09375
245,0.489,IMU2,-7.682926829268293,2.3170731707317076,-4.573170731707317,-11.234375,-0.0830078125,-0.10546875
246,0.499,IMU0,-22.195121951219512,-8.597560975609756,-3.963414634146342,-11.005859375,0.478515625,-0.7666015625
247,0.499,IMU1,-25.121951219512198,-6.52439024390244,-4.207317073170732,-10.955078125,0.498046875,-0.7138671875
248,0.499,IMU2,-26.09756097560976,-6.097560975609756,-3.9024390243902443,-10.990234375,0.513671875,-0.603515625
249,0.509,IMU0,-58.59756097560976,9.207317073170733,-0.6097560975609757,-11.0966796875,0.259765625,-0.376953125
250,0.509,IMU1,-59.87804878048781,10.792682926829269,-0.30487804878048785,-11.0576171875,0.22265625,-0.375
251,0.509,IMU2,-58.963414634146346,10.121951219512196,-0.30487804878048785,-11.0224609375,0.1875,-0.2744140625
252,0.519,IMU0,-46.15853658536586,-4.207317073170732,-0.24390243902439027,-11.1240234375,-0.2841796875,-0.0322265625
253,0.519,IMU1,-45.85365853658537,-3.658536585365854,-0.3658536585365854,-11.0986328125,-0.2998046875,-0.1259765625
254,0.519,IMU2,-43.59756097560976,-4.695121951219512,-0.5487804878048781,-11.1171875,-0.294921875,-0.14453125
255,0.529,IMU0,-33.53658536585366,-13.78048780487805,-1.7682926829268295,-11.03125,0.0625,-0.666015625
256,0.529,IMU1,-34.57317073170732,-12.317073170731708,-2.0121951219512195,-10.9736328125,0.0869140625,-0.703125
257,0.529,IMU2,-34.32926829268293,-12.560975609756099,-2.073170731707317,-10.9775390625,0.1259765625,-0.62109375
258,0.539,IMU0,-50.243902439024396,-4.207317073170732,0.3658536585365854,-10.9189453125,0.482421875,-0.958984375
259,0.539,IMU1,-51.40243902439025,-2.378048780487805,0.6097560975609757,-10.875,0.462890625,-0.970703125
260,0.539,IMU2,-51.21951219512196,-2.1951219512195124,0.7317073170731708,-10.869140625,0.4716796875,-0.9091796875
261,0.549,IMU0,-53.41463414634147,9.878048780487806,3.1707317073170733,-10.955078125,0.0703125,-0.6865234375
262,0.549,IMU1,-54.085365853658544,11.463414634146343,3.414634146341464,-10.939453125,0.04296875,-0.6982421875
263,0.549,IMU2,-53.10975609756098,11.52439024390244,3.353658536585366,-10.9580078125,0.01171875,-0.6318359375
264,0.559,IMU0,-51.951219512195124,10.975609756097562,-0.06097560975609757,-11.0673828125,-0.103515625,-0.32421875
265,0.559,IMU1,-52.50000000000001,12.073170731707318,0.0,-11.0390625,-0.1025390625,-0.3056640625
266,0.559,IMU2,-51.585365853658544,11.28048780487805,-0.06097560975609757,-11.05078125,-0.0908203125,-0.2431640625
267,0.569,IMU0,-56.15853658536586,1.524390243902439,-0.24390243902439027,-10.974609375,-0.177734375,-0.0947265625
268,0.569,IMU1,-56.707317073170735,1.7682926829268295,-0.24390243902439027,-10.9462890625,-0.1826171875,-0.16796875
269,0.569,IMU2,-55.304878048780495,0.426829268292683,-0.6097560975609757,-10.9619140625,-0.158203125,-0.181640625
270,0.579,IMU0,-59.63414634146342,-2.682926829268293,-0.7317073170731708,-10.85546875,-0.0546875,-0.486328125
271,0.579,IMU1,-60.79268292682927,-0.6097560975609757,-0.5487804878048781,-10.845703125,-0.06640625,-0.4609375
272,0.579,IMU2,-61.15853658536586,0.3658536585365854,-0.5487804878048781,-10.865234375,-0.076171875,-0.390625
273,0.589,IMU0,-63.41463414634147,1.4634146341463417,-5.609756097560976,-10.935546875,-0.0673828125,-0.2412109375
274,0.589,IMU1,-63.90243902439025,2.1951219512195124,-5.487804878048781,-10.8896484375,-0.044921875,-0.2529296875
275,0.589,IMU2,-62.6219512195122,0.06097560975609757,-5.670731707317073,-10.8603515625,0.005859375,-0.2236328125
276,0.599,IMU0,-55.365853658536594,-12.926829268292684,-2.5,-10.76953125,0.56640625,-0.759765625
277,0.599,IMU1,-56.34146341463415,-11.219512195121952,-2.25609756097561,-10.744140625,0.56640625,-0.7900390625
278,0.599,IMU2,-56.21951219512196,-10.487804878048781,-1.9512195121951221,-10.7373046875,0.587890625,-0.740234375
279,0.609,IMU0,-76.52439024390245,10.30487804878049,1.5853658536585367,-10.6953125,0.1806640625,-0.5205078125
280,0.609,IMU1,-78.04878048780489,12.073170731707318,2.3170731707317076,-10.658203125,0.1513671875,-0.4814453125
281,0.609,IMU2,-78.47560975609757,12.195121951219512,2.5609756097560976,-10.658203125,0.0732421875,-0.310546875
282,0.619,IMU0,-85.48780487804879,-2.804878048780488,0.06097560975609757,-11.0185546875,-0.478515625,-0.1201171875
283,0.619,IMU1,-85.54878048780489,-2.5609756097560976,0.426829268292683,-10.99609375,-0.4677734375,-0.2177734375
284,0.619,IMU2,-82.19512195121952,-5.182926829268293,-0.1829268292682927,-11.021484375,-0.40234375,-0.244140625
285,0.629,IMU0,-52.37804878048781,-16.76829268292683,-0.7317073170731708,-10.90234375,0.5869140625,-0.884765625
286,0.629,IMU1,-52.743902439024396,-14.939024390243905,-0.6097560975609757,-10.861328125,0.5966796875,-0.9267578125
287,0.629,IMU2,-51.585365853658544,-13.902439024390246,-0.1829268292682927,-10.853515625,0.662109375,-0.90625
288,0.639,IMU0,-79.69512195121952,16.70731707317073,6.463414634146342,-10.8603515625,0.478515625,-0.7890625
289,0.639,IMU1,-81.64634146341464,18.475609756097562,7.134146341463415,-10.8359375,0.45703125,-0.73046875
290,0.639,IMU2,-83.47560975609757,19.75609756097561,7.500000000000001,-10.896484375,0.3935546875,-0.671875
291,0.649,IMU0,-104.93902439024392,16.28048780487805,4.75609756097561,-11.263671875,-0.578125,0.0791015625
292,0.649,IMU1,-105.85365853658537,16.70731707317073,5.609756097560976,-11.236328125,-0.591796875,0.0341796875
293,0.649,IMU2,-103.41463414634147,13.719512195121952,5.060975609756098,-11.25390625,-0.6123046875,0.14453125
294,0.659,IMU0,-68.84146341463415,-6.951219512195123,-1.9512195121951221,-11.095703125,-0.4248046875,-0.271484375
295,0.659,IMU1,-69.02439024390245,-5.731707317073171,-1.707317073170732,-11.0673828125,-0.419921875,-0.3505859375
296,0.659,IMU2,-65.42682926829269,-6.585365853658537,-2.25609756097561,-11.064453125,-0.33203125,-0.37890625
297,0.669,IMU0,-74.81707317073172,2.073170731707317,-3.536585365853659,-10.8623046875,0.43359375,-0.8193359375
298,0.669,IMU1,-76.21951219512196,3.780487804878049,-3.1097560975609757,-10.830078125,0.4306640625,-0.7734375
299,0.669,IMU2,-78.04878048780489,5.2439024390243905,-3.048780487804878,-10.87109375,0.4560546875,-0.6884765625
300,0.679,IMU0,-103.59756097560977,13.170731707317074,-0.24390243902439027,-11.1162109375,0.2294921875,-0.173828125
301,0.679,IMU1,-104.75609756097562,14.146341463414636,0.7926829268292683,-11.0849609375,0.2177734375,-0.185546875
302,0.679,IMU2,-104.45121951219514,12.439024390243903,0.7926829268292683,-11.0810546875,0.2373046875,-0.1455078125
303,0.689,IMU0,-96.09756097560977,-8.292682926829269,0.5487804878048781,-11.111328125,-0.2646484375,-0.1806640625
304,0.689,IMU1,-96.58536585365854,-7.378048780487806,1.2804878048780488,-11.08203125,-0.2734375,-0.2294921875
305,0.689,IMU2,-94.32926829268294,-8.841463414634147,0.7926829268292683,-11.09375,-0.2587890625,-0.169921875
306,0.699,IMU0,-89.08536585365854,-8.109756097560977,-1.707317073170732,-10.982421875,0.0703125,-0.806640625
307,0.699,IMU1,-89.81707317073172,-6.7682926829268295,-1.1585365853658538,-10.9482421875,0.0693359375,-0.806640625
308,0.699,IMU2,-89.32926829268294,-5.365853658536586,-1.4634146341463417,-10.962890625,0.064453125,-0.75390625
309,0.709,IMU0,-95.97560975609757,8.902439024390244,1.402439024390244,-11.0029296875,0.6318359375,-0.6396484375
310,0.709,IMU1,-97.07317073170732,10.30487804878049,2.1951219512195124,-10.9638671875,0.626953125,-0.646484375
311,0.709,IMU2,-96.82926829268294,10.182926829268293,2.682926829268293,-10.9609375,0.6318359375,-0.6015625
312,0.719,IMU0,-106.15853658536587,3.231707317073171,7.500000000000001,-11.072265625,0.19921875,-0.4189453125
313,0.719,IMU1,-107.19512195121952,4.451219512195122,8.292682926829269,-11.0400390625,0.1904296875,-0.4306640625
314,0.719,IMU2,-105.91463414634147,3.963414634146342,8.109756097560977,-11.0439453125,0.2041015625,-0.357421875
315,0.729,IMU0,-113.78048780487806,2.439024390243903,6.402439024390245,-10.9921875,-0.3603515625,-0.5009765625
316,0.729,IMU1,-114.75609756097562,3.4756097560975614,7.317073170731708,-10.9677734375,-0.3681640625,-0.515625
317,0.729,IMU2,-113.47560975609757,2.7439024390243905,7.073170731707318,-10.9794921875,-0.3583984375,-0.4755859375
318,0.739,IMU0,-101.03658536585367,7.25609756097561,0.9756097560975611,-11.04296875,-0.15625,-0.462890625
319,0.739,IMU1,-102.01219512195122,8.658536585365855,1.7682926829268295,-11.013671875,-0.162109375,-0.4951171875
320,0.739,IMU2,-101.03658536585367,8.414634146341465,1.524390243902439,-11.0263671875,-0.1572265625,-0.4580078125
321,0.749,IMU0,-104.32926829268294,5.975609756097562,-0.3658536585365854,-11.0234375,0.236328125,-0.369140625
322,0.749,IMU1,-105.54878048780489,7.25609756097561,0.426829268292683,-10.990234375,0.2314453125,-0.3662109375
323,0.749,IMU2,-103.96341463414635,7.01219512195122,0.1829268292682927,-10.9931640625,0.236328125,-0.291015625
324,0.759,IMU0,-121.28048780487806,1.0975609756097562,1.6463414634146343,-10.9287109375,0.080078125,-0.3896484375
325,0.759,IMU1,-122.19512195121952,2.3170731707317076,2.7439024390243905,-10.8984375,0.0771484375,-0.388671875
326,0.759,IMU2,-120.60975609756099,1.8902439024390245,2.378048780487805,-10.9091796875,0.0849609375,-0.3193359375
327,0.769,IMU0,-121.46341463414635,0.6707317073170732,0.0,-10.9755859375,-0.287109375,-0.3466796875
328,0.769,IMU1,-122.6829268292683,2.0121951219512195,1.1585365853658538,-10.9501953125,-0.291015625,-0.373046875
329,0.769,IMU2,-120.97560975609757,1.6463414634146343,0.7317073170731708,-10.96484375,-0.2822265625,-0.3388671875
330,0.779,IMU0,-111.76829268292684,0.06097560975609757,-3.048780487804878,-10.9453125,0.1123046875,-0.3935546875
331,0.779,IMU1,-112.7439024390244,1.4634146341463417,-1.9512195121951221,-10.91015625,0.103515625,-0.404296875
332,0.779,IMU2,-111.52439024390245,1.3414634146341464,-2.378048780487805,-10.91796875,0.111328125,-0.361328125
333,0.789,IMU0,-117.43902439024392,-1.402439024390244,2.1951219512195124,-10.8798828125,0.611328125,-0.619140625
334,0.789,IMU1,-118.04878048780489,-0.12195121951219513,3.1097560975609757,-10.84375,0.599609375,-0.6201171875
335,0.789,IMU2,-117.13414634146342,-0.3658536585365854,2.804878048780488,-10.8388671875,0.609375,-0.5419921875
336,0.799,IMU0,-135.97560975609758,1.2804878048780488,7.621951219512196,-10.94140625,0.185546875,-0.57421875
337,0.799,IMU1,-137.01219512195124,2.073170731707317,8.963414634146343,-10.904296875,0.1904296875,-0.5859375
338,0.799,IMU2,-135.7926829268293,1.6463414634146343,8.475609756097562,-10.91015625,0.1943359375,-0.5322265625
339,0.809,IMU0,-134.45121951219514,7.01219512195122,6.52439024390244,-11.001953125,-0.3193359375,-0.3603515625
340,0.809,IMU1,-135.2439024390244,8.048780487804878,7.926829268292684,-10.9775390625,-0.3173828125,-0.369140625
341,0.809,IMU2,-133.90243902439025,7.743902439024391,7.500000000000001,-10.9853515625,-0.314453125,-0.3564453125
342,0.819,IMU0,-122.01219512195124,1.8902439024390245,3.4756097560975614,-10.9248046875,-0.00390625,-0.4775390625
343,0.819,IMU1,-122.50000000000001,3.1707317073170733,4.573170731707317,-10.8896484375,-0.0205078125,-0.5205078125
344,0.819,IMU2,-121.58536585365854,2.8658536585365857,4.146341463414634,-10.8935546875,-0.005859375,-0.44140625
345,0.829,IMU0,-133.90243902439025,4.939024390243903,3.9024390243902443,-10.8740234375,0.181640625,-0.517578125
346,0.829,IMU1,-134.75609756097563,6.158536585365854,5.2439024390243905,-10.84375,0.1796875,-0.529296875
347,0.829,IMU2,-133.2926829268293,5.914634146341464,4.695121951219512,-10.8505859375,0.1875,-0.455078125
348,0.839,IMU0,-144.26829268292684,5.548780487804878,2.987804878048781,-10.8935546875,-0.1513671875,-0.3388671875
349,0.839,IMU1,-145.3658536585366,6.52439024390244,4.573170731707317,-10.8662109375,-0.150390625,-0.3232421875
350,0.839,IMU2,-143.84146341463415,6.158536585365854,4.024390243902439,-10.876953125,-0.14453125,-0.30078125
351,0.849,IMU0,-137.5,2.0121951219512195,-0.12195121951219513,-10.791015625,-0.2421875,-0.296875
352,0.849,IMU1,-137.9268292682927,3.2926829268292686,1.2195121951219514,-10.765625,-0.25,-0.3447265625
353,0.849,IMU2,-137.37804878048783,2.8658536585365857,0.7926829268292683,-10.76953125,-0.23828125,-0.259765625
354,0.859,IMU0,-136.82926829268294,-1.2195121951219514,-1.829268292682927,-10.7724609375,0.208984375,-0.4296875
355,0.859,IMU1,-137.4390243902439,0.0,-0.6097560975609757,-10.7431640625,0.193359375,-0.4658203125
356,0.859,IMU2,-136.76829268292684,-0.06097560975609757,-1.0365853658536586,-10.74609375,0.212890625,-0.3876953125
357,0.869,IMU0,-144.75609756097563,-0.06097560975609757,1.6463414634146343,-10.765625,0.4423828125,-0.4990234375
358,0.869,IMU1,-145.609756097561,1.1585365853658538,2.9268292682926833,-10.6962890625,0.43359375,-0.4833984375
359,0.869,IMU2,-144.26829268292684,0.9756097560975611,2.5,-10.73046875,0.4453125,-0.44140625
360,0.879,IMU0,-152.31707317073173,1.2195121951219514,5.7926829268292686,-10.6806640625,0.140625,-0.48828125
361,0.879,IMU1,-153.59756097560978,2.3170731707317076,7.25609756097561,-10.6796875,0.140625,-0.4814453125
362,0.879,IMU2,-152.31707317073173,2.1341463414634148,6.829268292682928,-10.6572265625,0.1484375,-0.4267578125
363,0.889,IMU0,-152.9878048780488,0.24390243902439027,6.219512195121951,-10.7373046875,-0.048828125,-0.4072265625
364,0.889,IMU1,-154.69512195121953,1.5853658536585367,7.8048780487804885,-10.708984375,-0.056640625,-0.4306640625
365,0.889,IMU2,-152.9268292682927,1.2804878048780488,7.195121951219513,-10.712890625,-0.04296875,-0.39453125
366,0.899,IMU0,-148.96341463414635,-0.7926829268292683,5.853658536585367,-10.6669921875,0.1025390625,-0.5634765625
367,0.899,IMU1,-150.3658536585366,0.3658536585365854,7.317073170731708,-10.609375,0.0986328125,-0.5712890625
368,0.899,IMU2,-148.84146341463415,0.1829268292682927,6.829268292682928,-10.638671875,0.10546875,-0.51953125
369,0.909,IMU0,-156.64634146341464,5.182926829268293,6.158536585365854,-10.5703125,0.083984375,-0.5712890625
370,0.909,IMU1,-157.6219512195122,6.2804878048780495,7.8048780487804885,-10.5537109375,0.0771484375,-0.5625
371,0.909,IMU2,-156.58536585365854,5.975609756097562,7.25609756097561,-10.548828125,0.0888671875,-0.5068359375
372,0.919,IMU0,-161.58536585365854,3.536585365853659,4.085365853658537,-10.4873046875,-0.126953125,-0.330078125
373,0.919,IMU1,-162.9878048780488,5.0,5.853658536585367,-10.4580078125,-0.1357421875,-0.3359375
374,0.919,IMU2,-161.40243902439025,4.51219512195122,5.2439024390243905,-10.46484375,-0.119140625,-0.3134765625
375,0.929,IMU0,-163.0487804878049,1.4634146341463417,2.7439024390243905,-10.5390625,-0.400390625,-0.33203125
376,0.929,IMU1,-163.96341463414635,2.1951219512195124,3.963414634146342,-10.5185546875,-0.412109375,-0.337890625
377,0.929,IMU2,-162.7439024390244,2.1951219512195124,3.9024390243902443,-10.5302734375,-0.392578125,-0.287109375
378,0.939,IMU0,-161.34146341463415,1.6463414634146343,-2.8658536585365857,-10.7880859375,0.060546875,-0.505859375
379,0.939,IMU1,-161.46341463414635,3.353658536585366,-1.4634146341463417,-10.7333984375,0.0185546875,-0.5078125
380,0.939,IMU2,-160.97560975609758,2.7439024390243905,-1.7682926829268295,-10.7685546875,0.06640625,-0.4990234375
381,0.949,IMU0,-164.32926829268294,7.378048780487806,4.573170731707317,-11.2763671875,0.203125,-0.3427734375
382,0.949,IMU1,-167.19512195121953,8.048780487804878,6.341463414634147,-11.212890625,0.2333984375,-0.3359375
383,0.949,IMU2,-163.96341463414635,8.048780487804878,5.731707317073171,-11.251953125,0.2099609375,-0.2470703125
384,0.959,IMU0,-179.20731707317074,-7.134146341463415,1.5853658536585367,-11.240234375,-0.0263671875,-0.515625
385,0.959,IMU1,-180.1829268292683,-5.7926829268292686,3.536585365853659,-11.205078125,-0.0517578125,-0.55078125
386,0.959,IMU2,-178.78048780487808,-6.402439024390245,2.804878048780488,-11.2119140625,-0.017578125,-0.46875
387,0.969,IMU0,-158.84146341463415,4.329268292682928,3.7195121951219514,-11.2041015625,0.2724609375,-0.416015625
388,0.969,IMU1,-158.84146341463415,5.731707317073171,5.548780487804878,-11.189453125,0.3125,-0.3837890625
389,0.969,IMU2,-158.71951219512198,5.487804878048781,4.817073170731708,-11.171875,0.2802734375,-0.412109375
390,0.979,IMU0,-174.14634146341464,-2.6219512195121952,10.182926829268293,-11.1787109375,0.337890625,-0.4248046875
391,0.979,IMU1,-178.0487804878049,-1.9512195121951221,12.317073170731708,-11.1171875,0.3134765625,-0.427734375
392,0.979,IMU2,-174.08536585365854,-2.073170731707317,11.402439024390246,-11.1513671875,0.34765625,-0.3134765625
393,0.989,IMU0,-193.0487804878049,-7.682926829268293,10.182926829268293,-11.177734375,-0.16796875,-0.509765625
394,0.989,IMU1,-193.90243902439025,-7.073170731707318,12.256097560975611,-11.109375,-0.1728515625,-0.6689453125
395,0.989,IMU2,-192.50000000000003,-7.317073170731708,11.646341463414634,-11.15625,-0.15625,-0.5283203125
396,0.999,IMU0,-170.6707317073171,-3.1097560975609757,6.036585365853659,-11.02734375,-0.3251953125,-0.7568359375
397,0.999,IMU1,-171.03658536585368,-1.0975609756097562,7.500000000000001,-10.986328125,-0.302734375,-0.9130859375
398,0.999,IMU2,-170.4268292682927,-2.1341463414634148,7.317073170731708,-11.0126953125,-0.3173828125,-0.7763671875
399,1.009,IMU0,-173.90243902439025,12.073170731707318,1.829268292682927,-11.0078125,-0.0517578125,-0.4443359375
400,1.009,IMU1,-176.15853658536588,13.29268292682927,3.658536585365854,-10.984375,-0.0341796875,-0.4794921875
401,1.009,IMU2,-173.65853658536588,12.926829268292684,3.231707317073171,-10.986328125,-0.0439453125,-0.375
402,1.019,IMU0,-186.89024390243904,2.25609756097561,2.1341463414634148,-11.0791015625,0.0859375,-0.2060546875
403,1.019,IMU1,-188.1707317073171,2.7439024390243905,4.390243902439025,-11.048828125,0.0771484375,-0.2783203125
404,1.019,IMU2,-186.64634146341464,2.9268292682926833,3.536585365853659,-11.048828125,0.09375,-0.1767578125
405,1.029,IMU0,-183.109756097561,-5.914634146341464,2.5609756097560976,-11.0576171875,-0.091796875,-0.4775390625
406,1.029,IMU1,-184.14634146341464,-4.75609756097561,4.451219512195122,-11.0341796875,-0.1064453125,-0.5458984375
407,1.029,IMU2,-182.8048780487805,-5.121951219512195,3.8414634146341466,-11.0361328125,-0.083984375,-0.4326171875
408,1.039,IMU0,-185.609756097561,3.780487804878049,0.12195121951219513,-10.970703125,0.0634765625,-0.4755859375
409,1.039,IMU1,-186.58536585365854,5.3048780487804885,2.1951219512195124,-10.98046875,0.06640625,-0.3994140625
410,1.039,IMU2,-185.3658536585366,4.695121951219512,1.5853658536585367,-10.9423828125,0.07421875,-0.4072265625
411,1.049,IMU0,-184.69512195121953,-0.9146341463414634,3.780487804878049,-10.95703125,0.326171875,-0.27734375
412,1.049,IMU1,-185.7317073170732,-0.3658536585365854,5.975609756097562,-10.9453125,0.3193359375,-0.18359375
413,1.049,IMU2,-184.26829268292684,-0.06097560975609757,5.121951219512195,-10.923828125,0.33984375,-0.2099609375
414,1.059,IMU0,-193.47560975609758,-11.402439024390246,7.560975609756098,-10.8798828125,0.2001953125,-0.5322265625
415,1.059,IMU1,-195.2439024390244,-10.548780487804878,9.695121951219512,-10.845703125,0.19921875,-0.5361328125
416,1.059,IMU2,-193.0487804878049,-10.731707317073171,8.902439024390244,-10.8525390625,0.212890625,-0.4736328125
417,1.069,IMU0,-198.1707317073171,-3.353658536585366,8.536585365853659,-10.8330078125,-0.1396484375,-0.55859375
418,1.069,IMU1,-199.26829268292684,-1.9512195121951221,10.670731707317074,-10.8037109375,-0.1376953125,-0.5517578125
419,1.069,IMU2,-197.8658536585366,-2.9268292682926833,10.060975609756099,-10.8173828125,-0.1259765625,-0.5419921875
420,1.079,IMU0,-191.21951219512198,-3.780487804878049,7.01219512195122,-10.931640625,-0.0791015625,-0.4736328125
421,1.079,IMU1,-192.50000000000003,-2.987804878048781,9.02439024390244,-10.8916015625,-0.0654296875,-0.537109375
422,1.079,IMU2,-190.91463414634148,-3.1707317073170733,8.353658536585366,-10.9130859375,-0.0673828125,-0.4619140625
423,1.089,IMU0,-195.6707317073171,-5.609756097560976,6.341463414634147,-10.923828125,0.056640625,-0.7470703125
424,1.089,IMU1,-197.37804878048783,-4.390243902439025,8.414634146341465,-10.8759765625,0.056640625,-0.7880859375
425,1.089,IMU2,-195.2439024390244,-4.939024390243903,7.743902439024391,-10.8974609375,0.06640625,-0.701171875
426,1.099,IMU0,-203.65853658536588,2.6219512195121952,4.573170731707317,-10.9345703125,-0.2353515625,-0.626953125
427,1.099,IMU1,-204.81707317073173,4.024390243902439,6.707317073170732,-10.8984375,-0.2451171875,-0.658203125
428,1.099,IMU2,-203.1707317073171,3.048780487804878,6.097560975609756,-10.9140625,-0.2236328125,-0.607421875
429,1.109,IMU0,-198.71951219512198,7.500000000000001,0.6707317073170732,-11.0048828125,-0.291015625,-0.2275390625
430,1.109,IMU1,-199.51219512195124,8.658536585365855,2.804878048780488,-10.970703125,-0.2841796875,-0.2919921875
431,1.109,IMU2,-198.2317073170732,8.353658536585366,2.25609756097561,-10.98828125,-0.279296875,-0.2255859375
432,1.119,IMU0,-196.46341463414635,-2.8658536585365857,0.06097560975609757,-10.94921875,0.18359375,-0.1904296875
433,1.119,IMU1,-197.56097560975613,-2.0121951219512195,2.378048780487805,-10.90625,0.1845703125,-0.2294921875
434,1.119,IMU2,-196.03658536585368,-1.9512195121951221,1.5853658536585367,-10.9189453125,0.1923828125,-0.1416015625
435,1.129,IMU0,-208.109756097561,-7.8048780487804885,3.9024390243902443,-10.8076171875,0.201171875,-0.455078125
436,1.129,IMU1,-209.75609756097563,-6.829268292682928,6.341463414634147,-10.7939453125,0.177734375,-0.416015625
437,1.129,IMU2,-207.7439024390244,-7.378048780487806,5.487804878048781,-10.779296875,0.2099609375,-0.3681640625
438,1.139,IMU0,-213.0487804878049,-3.1707317073170733,4.634146341463415,-10.822265625,-0.0703125,-0.39453125
439,1.139,IMU1,-214.32926829268294,-2.073170731707317,7.073170731707318,-10.806640625,-0.0869140625,-0.330078125
440,1.139,IMU2,-212.62195121951223,-2.6219512195121952,6.341463414634147,-10.8017578125,-0.0556640625,-0.3349609375
441,1.149,IMU0,-204.26829268292684,-9.329268292682928,4.51219512195122,-10.7802734375,0.060546875,-0.4169921875
442,1.149,IMU1,-205.609756097561,-8.414634146341465,6.890243902439025,-10.7548828125,0.072265625,-0.4033203125
443,1.149,IMU2,-203.84146341463418,-8.353658536585366,6.097560975609756,-10.75390625,0.0771484375,-0.3662109375
444,1.159,IMU0,-211.21951219512198,-12.134146341463415,7.01219512195122,-10.7490234375,0.1318359375,-0.71484375
445,1.159,IMU1,-213.0487804878049,-11.036585365853659,9.390243902439025,-10.708984375,0.1298828125,-0.7138671875
446,1.159,IMU2,-210.7926829268293,-11.463414634146343,8.536585365853659,-10.7265625,0.146484375,-0.646484375
447,1.169,IMU0,-220.4268292682927,-5.7926829268292686,6.890243902439025,-10.8076171875,-0.12890625,-0.751953125
448,1.169,IMU1,-221.82926829268294,-4.634146341463415,9.329268292682928,-10.76953125,-0.1328125,-0.791015625
449,1.169,IMU2,-220.00000000000003,-5.182926829268293,8.536585365853659,-10.7890625,-0.11328125,-0.736328125
450,1.179,IMU0,-213.109756097561,-1.3414634146341464,3.5975609756097566,-10.8515625,-0.248046875,-0.583984375
451,1.179,IMU1,-213.96341463414635,-0.12195121951219513,5.975609756097562,-10.7998046875,-0.2431640625,-0.646484375
452,1.179,IMU2,-212.68292682926833,-0.6097560975609757,5.2439024390243905,-10.83203125,-0.2314453125,-0.58984375
453,1.189,IMU0,-214.02439024390245,-0.3658536585365854,1.0975609756097562,-10.7734375,-0.0732421875,-0.5107421875
454,1.189,IMU1,-215.2439024390244,0.7926829268292683,3.536585365853659,-10.7470703125,-0.0673828125,-0.5302734375
455,1.189,IMU2,-213.71951219512198,0.6707317073170732,2.804878048780488,-10.7548828125,-0.0576171875,-0.4755859375
456,1.199,IMU0,-221.28048780487808,-0.6707317073170732,0.6097560975609757,-10.75390625,-0.025390625,-0.3740234375
457,1.199,IMU1,-222.43902439024393,0.30487804878048785,3.231707317073171,-10.7265625,-0.0263671875,-0.4208984375
458,1.199,IMU2,-220.85365853658539,0.0,2.378048780487805,-10.732421875,-0.0107421875,-0.3603515625
459,1.209,IMU0,-221.28048780487808,-3.9024390243902443,-0.12195121951219513,-10.69140625,-0.0224609375,-0.30078125
460,1.209,IMU1,-222.50000000000003,-2.9268292682926833,2.439024390243903,-10.6650390625,-0.0244140625,-0.318359375
461,1.209,IMU2,-220.7926829268293,-3.1707317073170733,1.524390243902439,-10.6728515625,-0.0087890625,-0.265625
462,1.219,IMU0,-222.8048780487805,-6.158536585365854,0.0,-10.6962890625,0.046875,-0.365234375
463,1.219,IMU1,-224.14634146341464,-5.3048780487804885,2.6219512195121952,-10.6767578125,0.044921875,-0.3408203125
464,1.219,IMU2,-222.43902439024393,-5.426829268292684,1.707317073170732,-10.6767578125,0.060546875,-0.287109375
465,1.229,IMU0,-227.25609756097563,-8.841463414634147,1.0365853658536586,-10.650390625,0.0908203125,-0.40234375
466,1.229,IMU1,-228.41463414634148,-7.8048780487804885,3.7195121951219514,-10.625,0.0927734375,-0.380859375
467,1.229,IMU2,-226.76829268292684,-8.170731707317074,2.804878048780488,-10.6298828125,0.1083984375,-0.330078125
468,1.239,IMU0,-227.01219512195124,-14.451219512195124,1.9512195121951221,-10.6337890625,0.138671875,-0.564453125
469,1.239,IMU1,-228.41463414634148,-13.414634146341465,4.573170731707317,-10.5986328125,0.14453125,-0.564453125
470,1.239,IMU2,-226.70731707317074,-13.719512195121952,3.658536585365854,-10.611328125,0.158203125,-0.5087890625
471,1.249,IMU0,-231.21951219512198,-11.951219512195124,3.353658536585366,-10.5302734375,0.05859375,-0.8125
472,1.249,IMU1,-232.68292682926833,-10.792682926829269,5.975609756097562,-10.4970703125,0.0595703125,-0.830078125
473,1.249,IMU2,-230.91463414634148,-11.097560975609756,5.060975609756098,-10.5126953125,0.076171875,-0.7744140625
474,1.259,IMU0,-235.3048780487805,-5.731707317073171,2.0121951219512195,-10.5458984375,-0.146484375,-0.6611328125
475,1.259,IMU1,-236.52439024390247,-4.573170731707317,4.75609756097561,-10.5185546875,-0.1455078125,-0.6875
476,1.259,IMU2,-234.87804878048783,-4.939024390243903,3.8414634146341466,-10.533203125,-0.126953125,-0.6474609375
477,1.269,IMU0,-231.03658536585368,-6.402439024390245,-0.30487804878048785,-10.5341796875,-0.0947265625,-0.671875
478,1.269,IMU1,-232.31707317073173,-5.182926829268293,2.378048780487805,-10.505859375,-0.095703125,-0.7001953125
479,1.269,IMU2,-230.609756097561,-5.426829268292684,1.524390243902439,-10.517578125,-0.078125,-0.6640625
480,1.279,IMU0,-234.81707317073173,-1.2804878048780488,-0.7926829268292683,-10.5654296875,0.0087890625,-0.6728515625
481,1.279,IMU1,-236.21951219512198,-0.1829268292682927,2.0121951219512195,-10.5361328125,0.0078125,-0.673828125
482,1.279,IMU2,-234.51219512195124,-0.48780487804878053,1.0975609756097562,-10.5458984375,0.0224609375,-0.6171875
483,1.289,IMU0,-242.19512195121953,0.6707317073170732,-2.3170731707317076,-10.587890625,-0.1279296875,-0.376953125
484,1.289,IMU1,-243.35365853658539,1.707317073170732,0.5487804878048781,-10.5625,-0.1259765625,-0.38671875
485,1.289,IMU2,-241.58536585365854,1.2804878048780488,-0.3658536585365854,-10.57421875,-0.11328125,-0.333984375
486,1.299,IMU0,-237.43902439024393,-5.853658536585367,-4.085365853658537,-10.5830078125,-0.126953125,-0.2919921875
487,1.299,IMU1,-238.59756097560978,-4.75609756097561,-1.3414634146341464,-10.55859375,-0.123046875,-0.3056640625
488,1.299,IMU2,-236.95121951219514,-5.182926829268293,-2.25609756097561,-10.56640625,-0.103515625,-0.2421875
489,1.309,IMU0,-240.12195121951223,-9.207317073170733,-3.4756097560975614,-10.5,0.10546875,-0.49609375
490,1.309,IMU1,-241.34146341463418,-8.231707317073171,-0.7317073170731708,-10.4716796875,0.111328125,-0.498046875
491,1.309,IMU2,-239.75609756097563,-8.475609756097562,-1.6463414634146343,-10.47265625,0.1259765625,-0.43359375
492,1.319,IMU0,-246.95121951219514,-8.231707317073171,-2.5,-10.533203125,0.123046875,-0.3974609375
493,1.319,IMU1,-248.109756097561,-7.134146341463415,0.30487804878048785,-10.5048828125,0.126953125,-0.4169921875
494,1.319,IMU2,-246.34146341463418,-7.439024390243903,-0.6707317073170732,-10.505859375,0.1474609375,-0.3759765625
495,1.329,IMU0,-246.34146341463418,-15.914634146341465,-1.402439024390244,-10.4990234375,0.0234375,-0.5166015625
496,1.329,IMU1,-247.50000000000003,-14.878048780487806,1.402439024390244,-10.46875,0.0263671875,-0.52734375
497,1.329,IMU2,-245.609756097561,-15.121951219512196,0.3658536585365854,-10.4765625,0.0439453125,-0.5087890625
498,1.339,IMU0,-248.78048780487808,-13.170731707317074,-0.3658536585365854,-10.453125,-0.0439453125,-0.78515625
499,1.339,IMU1,-249.93902439024393,-12.134146341463415,2.5609756097560976,-10.416015625,-0.0380859375,-0.806640625
500,1.339,IMU2,-248.2317073170732,-12.256097560975611,1.524390243902439,-10.43359375,-0.0322265625,-0.7294921875
501,1.349,IMU0,-249.63414634146343,-5.0,-1.707317073170732,-10.4365234375,-0.0048828125,-0.853515625
502,1.349,IMU1,-250.6707317073171,-3.963414634146342,1.2195121951219514,-10.4072265625,-0.0087890625,-0.875
503,1.349,IMU2,-248.90243902439028,-4.207317073170732,0.24390243902439027,-10.4140625,0.013671875,-0.794921875
504,1.359,IMU0,-246.95121951219514,0.853658536585366,-2.6219512195121952,-10.4287109375,-0.009765625,-0.6640625
505,1.359,IMU1,-247.9878048780488,1.9512195121951221,0.30487804878048785,-10.40234375,-0.0107421875,-0.6767578125
506,1.359,IMU2,-246.46341463414637,1.6463414634146343,-0.6707317073170732,-10.3984375,0.0166015625,-0.6103515625
507,1.369,IMU0,-254.93902439024393,0.12195121951219513,-2.682926829268293,-10.4453125,-0.1328125,-0.4501953125
508,1.369,IMU1,-256.0975609756098,1.3414634146341464,0.3658536585365854,-10.4228515625,-0.1279296875,-0.474609375
509,1.369,IMU2,-254.26829268292684,0.9146341463414634,-0.6707317073170732,-10.42578125,-0.109375,-0.419921875
510,1.379,IMU0,-255.00000000000003,-3.353658536585366,-4.75609756097561,-10.50390625,-0.2041015625,-0.3671875
511,1.379,IMU1,-256.4024390243903,-2.25609756097561,-1.707317073170732,-10.4765625,-0.205078125,-0.376953125
512,1.379,IMU2,-254.26829268292684,-2.5,-2.7439024390243905,-10.4853515625,-0.1796875,-0.375
513,1.389,IMU0,-250.91463414634148,-4.634146341463415,-6.707317073170732,-10.4345703125,-0.0107421875,-0.3623046875
514,1.389,IMU1,-252.01219512195124,-3.414634146341464,-3.7195121951219514,-10.3896484375,-0.0078125,-0.3896484375
515,1.389,IMU2,-250.18292682926833,-3.658536585365854,-4.75609756097561,-10.416015625,0.0146484375,-0.34375
516,1.399,IMU0,-257.19512195121956,-7.134146341463415,-5.426829268292684,-10.3740234375,0.0888671875,-0.3828125
517,1.399,IMU1,-258.1707317073171,-5.975609756097562,-2.378048780487805,-10.34765625,0.0947265625,-0.396484375
518,1.399,IMU2,-256.6463414634147,-6.341463414634147,-3.414634146341464,-10.3564453125,0.1064453125,-0.296875
519,1.409,IMU0,-261.4634146341464,-11.951219512195124,-4.024390243902439,-10.4208984375,-0.0263671875,-0.546875
520,1.409,IMU1,-262.7439024390244,-11.036585365853659,-0.9756097560975611,-10.4072265625,-0.0107421875,-0.5439453125
521,1.409,IMU2,-260.9146341463415,-11.402439024390246,-2.0121951219512195,-10.396484375,-0.0009765625,-0.5029296875
522,1.419,IMU0,-257.2560975609756,-11.890243902439025,-4.451219512195122,-10.40234375,0.037109375,-0.736328125
523,1.419,IMU1,-258.6585365853659,-10.914634146341465,-1.402439024390244,-10.3798828125,0.029296875,-0.7333984375
524,1.419,IMU2,-256.70731707317077,-10.975609756097562,-2.439024390243903,-10.37109375,0.06640625,-0.7216796875
525,1.429,IMU0,-259.69512195121956,-4.146341463414634,-3.2926829268292686,-10.3857421875,0.08984375,-0.7705078125
526,1.429,IMU1,-260.8536585365854,-3.2926829268292686,-0.1829268292682927,-10.349609375,0.095703125,-0.7529296875
527,1.429,IMU2,-259.1463414634147,-3.2926829268292686,-1.2195121951219514,-10.3623046875,0.1142578125,-0.740234375
528,1.439,IMU0,-264.69512195121956,-2.0121951219512195,-2.439024390243903,-10.416015625,-0.013671875,-0.587890625
529,1.439,IMU1,-265.8536585365854,-1.0365853658536586,0.7926829268292683,-10.3671875,0.005859375,-0.62890625
530,1.439,IMU2,-263.9634146341464,-1.3414634146341464,-0.24390243902439027,-10.3935546875,0.00390625,-0.5703125
531,1.449,IMU0,-262.8048780487805,-2.1341463414634148,-2.987804878048781,-10.3837890625,-0.119140625,-0.607421875
532,1.449,IMU1,-263.9634146341464,-1.3414634146341464,0.30487804878048785,-10.34765625,-0.1220703125,-0.666015625
533,1.449,IMU2,-262.19512195121956,-1.402439024390244,-0.7926829268292683,-10.3671875,-0.1015625,-0.533203125
534,1.459,IMU0,-262.9268292682927,-1.1585365853658538,-4.695121951219512,-10.3330078125,-0.0576171875,-0.6083984375
535,1.459,IMU1,-264.1463414634147,-0.06097560975609757,-1.4634146341463417,-10.322265625,-0.0595703125,-0.603515625
536,1.459,IMU2,-262.4390243902439,-0.3658536585365854,-2.5,-10.2998046875,-0.025390625,-0.548828125
537,1.469,IMU0,-264.75609756097566,-1.524390243902439,-5.2439024390243905,-10.3076171875,-0.0947265625,-0.4638671875
538,1.469,IMU1,-265.9146341463415,-0.6097560975609757,-1.9512195121951221,-10.294921875,-0.0888671875,-0.482421875
539,1.469,IMU2,-264.26829268292687,-0.9146341463414634,-3.1097560975609757,-10.27734375,-0.0712890625,-0.439453125
540,1.479,IMU0,-266.76829268292687,-6.829268292682928,-6.036585365853659,-10.291015625,-0.04296875,-0.5732421875
541,1.479,IMU1,-267.9268292682927,-5.7926829268292686,-2.7439024390243905,-10.2626953125,-0.0263671875,-0.5625
542,1.479,IMU2,-266.0975609756098,-6.036585365853659,-3.8414634146341466,-10.265625,-0.0224609375,-0.55078125
543,1.489,IMU0,-267.8048780487805,-3.353658536585366,-7.500000000000001,-10.2578125,-0.01953125,-0.4990234375
544,1.489,IMU1,-268.8414634146342,-2.378048780487805,-4.146341463414634,-10.212890625,-0.01171875,-0.5390625
545,1.489,IMU2,-267.19512195121956,-2.6219512195121952,-5.182926829268293,-10.2373046875,0.005859375,-0.484375
546,1.499,IMU0,-268.5975609756098,-5.548780487804878,-7.073170731707318,-10.2412109375,0.015625,-0.4755859375
547,1.499,IMU1,-269.75609756097566,-4.51219512195122,-3.780487804878049,-10.2265625,0.0107421875,-0.5185546875
548,1.499,IMU2,-268.109756097561,-4.878048780487806,-4.878048780487806,-10.21875,0.037109375,-0.4150390625
549,1.509,IMU0,-269.20731707317077,-8.048780487804878,-4.878048780487806,-10.2333984375,0.203125,-0.6728515625
550,1.509,IMU1,-270.2439024390244,-7.134146341463415,-1.7682926829268295,-10.2119140625,0.2109375,-0.6728515625
551,1.509,IMU2,-268.719512195122,-7.317073170731708,-2.7439024390243905,-10.2001953125,0.228515625,-0.6298828125
552,1.519,IMU0,-273.5365853658537,-4.817073170731708,-3.536585365853659,-10.2470703125,0.1259765625,-0.7587890625
553,1.519,IMU1,-274.63414634146346,-4.024390243902439,-0.24390243902439027,-10.2158203125,0.1279296875,-0.7421875
554,1.519,IMU2,-272.9878048780488,-4.024390243902439,-1.3414634146341464,-10.21875,0.154296875,-0.724609375
555,1.529,IMU0,-274.1463414634147,-0.1829268292682927,-2.5609756097560976,-10.2763671875,-0.0771484375,-0.650390625
556,1.529,IMU1,-275.609756097561,0.6097560975609757,0.853658536585366,-10.2265625,-0.05859375,-0.6787109375
557,1.529,IMU2,-273.4756097560976,0.5487804878048781,-0.426829268292683,-10.2568359375,-0.0517578125,-0.640625
558,1.539,IMU0,-272.13414634146346,-0.1829268292682927,-3.048780487804878,-10.232421875,-0.0244140625,-0.560546875
559,1.539,IMU1,-273.109756097561,0.9146341463414634,0.1829268292682927,-10.2138671875,-0.03125,-0.595703125
560,1.539,IMU2,-271.5243902439025,0.48780487804878053,-0.9146341463414634,-10.2138671875,-0.00390625,-0.4970703125
561,1.549,IMU0,-274.51219512195127,-2.073170731707317,-3.8414634146341466,-10.2109375,0.001953125,-0.67578125
562,1.549,IMU1,-275.5487804878049,-1.1585365853658538,-0.48780487804878053,-10.19921875,-0.00390625,-0.6689453125
563,1.549,IMU2,-274.0243902439025,-1.2804878048780488,-1.6463414634146343,-10.1787109375,0.03515625,-0.6201171875
564,1.559,IMU0,-276.95121951219517,1.0365853658536586,-4.329268292682928,-10.2666015625,-0.12890625,-0.58984375
565,1.559,IMU1,-278.2926829268293,1.8902439024390245,-0.7926829268292683,-10.2451171875,-0.109375,-0.6044921875
566,1.559,IMU2,-276.4024390243903,1.6463414634146343,-2.073170731707317,-10.2412109375,-0.1025390625,-0.568359375
567,1.569,IMU0,-276.1585365853659,-1.1585365853658538,-6.402439024390245,-10.2734375,-0.095703125,-0.48828125
568,1.569,IMU1,-277.4390243902439,-0.12195121951219513,-3.048780487804878,-10.232421875,-0.0791015625,-0.509765625
569,1.569,IMU2,-275.4878048780488,-0.426829268292683,-4.146341463414634,-10.2470703125,-0.0703125,-0.486328125
570,1.579,IMU0,-274.20731707317077,-3.5975609756097566,-7.439024390243903,-10.150390625,0.0732421875,-0.5400390625
571,1.579,IMU1,-275.4878048780488,-2.3170731707317076,-4.146341463414634,-10.1259765625,0.0712890625,-0.5888671875
572,1.579,IMU2,-273.5365853658537,-2.7439024390243905,-5.2439024390243905,-10.1298828125,0.099609375,-0.5
573,1.589,IMU0,-278.3536585365854,-2.7439024390243905,-5.609756097560976,-10.0869140625,0.1474609375,-0.625
574,1.589,IMU1,-279.26829268292687,-2.0121951219512195,-2.25609756097561,-10.0908203125,0.15234375,-0.6396484375
575,1.589,IMU2,-277.9268292682927,-2.073170731707317,-3.353658536585366,-10.05078125,0.1767578125,-0.5712890625
576,1.599,IMU0,-278.3536585365854,-2.7439024390243905,-5.609756097560976,-10.0869140625,0.1474609375,-0.625
577,1.599,IMU1,-281.89024390243907,-0.3658536585365854,-0.48780487804878053,-10.142578125,0.1689453125,-0.5947265625
578,1.599,IMU2,-280.0609756097561,-0.426829268292683,-1.524390243902439,-10.1435546875,0.1796875,-0.548828125
579,1.609,IMU0,-279.57317073170736,-4.329268292682928,-2.439024390243903,-10.1357421875,0.1533203125,-0.6552734375
580,1.609,IMU1,-280.9756097560976,-3.1097560975609757,0.853658536585366,-10.09375,0.1728515625,-0.625
581,1.609,IMU2,-278.9634146341464,-3.5975609756097566,-0.1829268292682927,-10.0947265625,0.1806640625,-0.6005859375
582,1.619,IMU0,-281.89024390243907,-2.682926829268293,-1.1585365853658538,-10.01953125,0.0556640625,-0.7685546875
583,1.619,IMU1,-282.9268292682927,-2.1341463414634148,2.3170731707317076,-9.986328125,0.0654296875,-0.796875
584,1.619,IMU2,-281.2804878048781,-1.8902439024390245,1.2195121951219514,-10.015625,0.0927734375,-0.7265625
585,1.629,IMU0,-283.109756097561,4.146341463414634,-1.402439024390244,-10.0751953125,-0.0029296875,-0.6904296875
586,1.629,IMU1,-284.20731707317077,4.817073170731708,2.25609756097561,-10.046875,-0.00390625,-0.724609375
587,1.629,IMU2,-282.4390243902439,4.878048780487806,1.0365853658536586,-10.052734375,0.0205078125,-0.6796875
588,1.639,IMU0,-281.95121951219517,3.1707317073170733,-2.3170731707317076,-10.107421875,-0.01953125,-0.5458984375
589,1.639,IMU1,-283.109756097561,4.146341463414634,1.3414634146341464,-10.0966796875,-0.0166015625,-0.55859375
590,1.639,IMU2,-281.3414634146342,3.780487804878049,0.12195121951219513,-10.0966796875,0.005859375,-0.494140625
591,1.649,IMU0,-284.9390243902439,1.1585365853658538,-3.1707317073170733,-10.1123046875,-0.029296875,-0.54296875
592,1.649,IMU1,-286.4024390243903,1.829268292682927,0.3658536585365854,-10.0869140625,-0.017578125,-0.5224609375
593,1.649,IMU2,-284.75609756097566,1.2195121951219514,-0.7926829268292683,-10.0849609375,0.0048828125,-0.478515625
594,1.659,IMU0,-286.2804878048781,-0.9756097560975611,-4.695121951219512,-10.0263671875,-0.046875,-0.58984375
595,1.659,IMU1,-287.5,-0.12195121951219513,-1.0975609756097562,-9.9892578125,-0.0341796875,-0.6220703125
596,1.659,IMU2,-285.4268292682927,-0.426829268292683,-2.3170731707317076,-10.001953125,-0.013671875,-0.576171875
597,1.669,IMU0,-285.0609756097561,2.3170731707317076,-5.3048780487804885,-10.080078125,0.0576171875,-0.5869140625
598,1.669,IMU1,-286.3414634146342,3.414634146341464,-1.707317073170732,-10.0576171875,0.0654296875,-0.6171875
599,1.669,IMU2,-284.51219512195127,3.048780487804878,-2.8658536585365857,-10.060546875,0.083984375,-0.5673828125
600,1.679,IMU0,-287.31707317073176,0.7317073170731708,-4.75609756097561,-10.03515625,0.2900390625,-0.51953125
601,1.679,IMU1,-288.6585365853659,1.6463414634146343,-0.9756097560975611,-10.0146484375,0.2900390625,-0.521484375
602,1.679,IMU2,-286.70731707317077,1.402439024390244,-2.1951219512195124,-10.0087890625,0.3115234375,-0.4677734375
603,1.689,IMU0,-290.7317073170732,-0.12195121951219513,-2.3170731707317076,-10.005859375,0.1416015625,-0.55078125
604,1.689,IMU1,-292.13414634146346,0.853658536585366,1.3414634146341464,-9.9736328125,0.1533203125,-0.533203125
605,1.689,IMU2,-290.1219512195122,0.48780487804878053,0.12195121951219513,-9.9755859375,0.173828125,-0.4892578125
606,1.699,IMU0,-292.6829268292683,-1.5853658536585367,-1.402439024390244,-9.970703125,0.1162109375,-0.583984375
607,1.699,IMU1,-294.0853658536586,-0.6707317073170732,2.25609756097561,-9.931640625,0.1240234375,-0.6005859375
608,1.699,IMU2,-292.07317073170736,-1.0365853658536586,1.0365853658536586,-9.9384765625,0.146484375,-0.5595703125
609,1.709,IMU0,-290.9756097560976,-0.853658536585366,0.06097560975609757,-9.8671875,0.255859375,-0.65625
610,1.709,IMU1,-292.3780487804878,0.12195121951219513,3.7195121951219514,-9.837890625,0.2587890625,-0.681640625
611,1.709,IMU2,-290.3048780487805,-0.1829268292682927,2.5,-9.8388671875,0.279296875,-0.62890625
612,1.719,IMU0,-299.69512195121956,1.402439024390244,0.6707317073170732,-9.93359375,0.0751953125,-0.654296875
613,1.719,IMU1,-301.219512195122,2.3170731707317076,4.390243902439025,-9.9169921875,0.078125,-0.650390625
614,1.719,IMU2,-299.0853658536586,1.8902439024390245,3.1707317073170733,-9.9208984375,0.1015625,-0.5908203125
615,1.729,IMU0,-300.0,1.8902439024390245,-0.5487804878048781,-10.0087890625,-0.11328125,-0.654296875
616,1.729,IMU1,-301.2804878048781,2.804878048780488,3.1707317073170733,-9.9775390625,-0.099609375,-0.6630859375
617,1.729,IMU2,-299.1463414634147,2.439024390243903,1.8902439024390245,-9.98828125,-0.0771484375,-0.6171875
618,1.739,IMU0,-296.2804878048781,3.4756097560975614,-3.231707317073171,-9.9814453125,0.0068359375,-0.5810546875
619,1.739,IMU1,-297.6219512195122,4.451219512195122,0.48780487804878053,-9.9501953125,0.01953125,-0.591796875
620,1.739,IMU2,-295.6707317073171,4.207317073170732,-0.7317073170731708,-9.9560546875,0.0400390625,-0.541015625
621,1.749,IMU0,-302.01219512195127,2.5609756097560976,-4.207317073170732,-9.95703125,0.123046875,-0.517578125
622,1.749,IMU1,-303.3536585365854,3.414634146341464,-0.426829268292683,-9.9345703125,0.130859375,-0.5302734375
623,1.749,IMU2,-301.3414634146342,3.1707317073170733,-1.6463414634146343,-9.935546875,0.15234375,-0.478515625
624,1.759,IMU0,-304.39024390243907,0.0,-3.2926829268292686,-9.9033203125,0.11328125,-0.5146484375
625,1.759,IMU1,-305.7317073170732,0.853658536585366,0.48780487804878053,-9.884765625,0.1171875,-0.5185546875
626,1.759,IMU2,-303.5975609756098,0.5487804878048781,-0.7317073170731708,-9.888671875,0.13671875,-0.4658203125
627,1.769,IMU0,-304.81707317073176,0.3658536585365854,-3.7195121951219514,-9.8193359375,0.1337890625,-0.5185546875
628,1.769,IMU1,-306.2804878048781,1.2804878048780488,0.12195121951219513,-9.7880859375,0.1513671875,-0.529296875
629,1.769,IMU2,-304.26829268292687,1.0365853658536586,-1.0975609756097562,-9.7900390625,0.173828125,-0.47265625
630,1.779,IMU0,-305.3658536585366,-0.24390243902439027,-2.439024390243903,-9.833984375,0.2490234375,-0.4931640625
631,1.779,IMU1,-306.76829268292687,0.7926829268292683,1.402439024390244,-9.806640625,0.2646484375,-0.515625
632,1.779,IMU2,-304.81707317073176,0.48780487804878053,0.1829268292682927,-9.80859375,0.28515625,-0.470703125
633,1.789,IMU0,-309.0853658536586,-2.5,0.0,-9.857421875,0.27734375,-0.533203125
634,1.789,IMU1,-310.4268292682927,-1.6463414634146343,3.963414634146342,-9.8330078125,0.28515625,-0.5380859375
635,1.789,IMU2,-308.3536585365854,-2.0121951219512195,2.682926829268293,-9.8349609375,0.2998046875,-0.4931640625
636,1.799,IMU0,-312.8048780487805,-2.6219512195121952,0.5487804878048781,-9.8310546875,0.1376953125,-0.58203125
637,1.799,IMU1,-314.26829268292687,-1.707317073170732,4.51219512195122,-9.802734375,0.150390625,-0.59375
638,1.799,IMU2,-312.19512195121956,-2.073170731707317,3.231707317073171,-9.8056640625,0.1728515625,-0.537109375
639,1.809,IMU0,-311.70731707317077,-2.5609756097560976,0.0,-9.7822265625,0.046875,-0.6025390625
640,1.809,IMU1,-313.2317073170732,-1.6463414634146343,3.8414634146341466,-9.7568359375,0.05859375,-0.625
641,1.809,IMU2,-311.1585365853659,-1.9512195121951221,2.5609756097560976,-9.759765625,0.083984375,-0.57421875
642,1.819,IMU0,-313.9634146341464,-1.2195121951219514,-0.48780487804878053,-9.759765625,0.013671875,-0.7177734375
643,1.819,IMU1,-315.4878048780488,-0.3658536585365854,3.414634146341464,-9.7373046875,0.021484375,-0.732421875
644,1.819,IMU2,-313.4146341463415,-0.426829268292683,2.1341463414634148,-9.7451171875,0.041015625,-0.6875
645,1.829,IMU0,-314.87804878048786,2.5609756097560976,-2.682926829268293,-9.78125,0.0947265625,-0.5947265625
646,1.829,IMU1,-316.3414634146342,3.4756097560975614,1.2804878048780488,-9.7568359375,0.1064453125,-0.60546875
647,1.829,IMU2,-314.20731707317077,3.231707317073171,0.0,-9.763671875,0.1279296875,-0.5556640625
648,1.839,IMU0,-314.69512195121956,1.7682926829268295,-3.414634146341464,-9.8056640625,0.05859375,-0.431640625
649,1.839,IMU1,-316.0365853658537,2.7439024390243905,0.5487804878048781,-9.78125,0.0703125,-0.4453125
650,1.839,IMU2,-314.1463414634147,2.378048780487805,-0.7926829268292683,-9.78125,0.103515625,-0.3837890625
651,1.849,IMU0,-317.8658536585366,-2.804878048780488,-3.353658536585366,-9.798828125,0.1064453125,-0.46875
652,1.849,IMU1,-319.39024390243907,-1.829268292682927,0.6097560975609757,-9.775390625,0.119140625,-0.490234375
653,1.849,IMU2,-317.37804878048786,-2.1341463414634148,-0.7317073170731708,-9.7744140625,0.1455078125,-0.4453125
654,1.859,IMU0,-317.7439024390244,-3.048780487804878,-2.987804878048781,-9.724609375,0.240234375,-0.490234375
655,1.859,IMU1,-319.1463414634147,-2.1341463414634148,0.9756097560975611,-9.6982421875,0.2529296875,-0.5029296875
656,1.859,IMU2,-317.01219512195127,-2.378048780487805,-0.24390243902439027,-9.7041015625,0.275390625,-0.470703125
657,1.869,IMU0,-320.5487804878049,-3.1707317073170733,-1.6463414634146343,-9.7490234375,0.236328125,-0.4755859375
658,1.869,IMU1,-322.01219512195127,-2.1951219512195124,2.378048780487805,-9.724609375,0.248046875,-0.4873046875
659,1.869,IMU2,-320.0609756097561,-2.5,1.0975609756097562,-9.7236328125,0.279296875,-0.4248046875
660,1.879,IMU0,-323.0487804878049,-5.975609756097562,-0.3658536585365854,-9.744140625,0.140625,-0.453125
661,1.879,IMU1,-324.51219512195127,-5.060975609756098,3.7195121951219514,-9.7216796875,0.1533203125,-0.4755859375
662,1.879,IMU2,-322.31707317073176,-5.426829268292684,2.3170731707317076,-9.7197265625,0.1767578125,-0.439453125
663,1.889,IMU0,-322.8658536585366,-7.621951219512196,0.06097560975609757,-9.5703125,0.1220703125,-0.6083984375
664,1.889,IMU1,-324.20731707317077,-6.829268292682928,4.085365853658537,-9.5439453125,0.1337890625,-0.6171875
665,1.889,IMU2,-322.01219512195127,-6.951219512195123,2.7439024390243905,-9.552734375,0.1533203125,-0.576171875
666,1.899,IMU0,-325.0,-4.329268292682928,-0.7926829268292683,-9.6044921875,0.119140625,-0.62109375
667,1.899,IMU1,-326.5243902439025,-3.414634146341464,3.353658536585366,-9.578125,0.12890625,-0.6357421875
668,1.899,IMU2,-324.51219512195127,-3.780487804878049,1.9512195121951221,-9.580078125,0.1650390625,-0.5712890625
669,1.909,IMU0,-325.8536585365854,-4.390243902439025,-0.48780487804878053,-9.6220703125,0.0849609375,-0.650390625
670,1.909,IMU1,-327.5,-3.1707317073170733,3.7195121951219514,-9.59375,0.1015625,-0.666015625
671,1.909,IMU2,-325.1219512195122,-3.7195121951219514,2.25609756097561,-9.6015625,0.1181640625,-0.625
672,1.919,IMU0,-328.8414634146342,-1.707317073170732,-2.1341463414634148,-9.6572265625,-0.0146484375,-0.5712890625
673,1.919,IMU1,-330.2439024390244,-1.0365853658536586,1.8902439024390245,-9.6337890625,-0.0009765625,-0.5830078125
674,1.919,IMU2,-328.109756097561,-1.1585365853658538,0.6097560975609757,-9.640625,0.0185546875,-0.5341796875
675,1.929,IMU0,-327.7439024390244,-1.4634146341463417,-4.085365853658537,-9.5869140625,-0.0009765625,-0.42578125
676,1.929,IMU1,-328.7804878048781,-0.7926829268292683,-0.06097560975609757,-9.56640625,0.0078125,-0.4482421875
677,1.929,IMU2,-326.95121951219517,-0.853658536585366,-1.3414634146341464,-9.5654296875,0.0439453125,-0.38671875
678,1.939,IMU0,-326.82926829268297,-4.75609756097561,-4.451219512195122,-9.5341796875,0.1953125,-0.384765625
679,1.939,IMU1,-328.9634146341464,-4.146341463414634,-0.30487804878048785,-9.5078125,0.2080078125,-0.400390625
680,1.939,IMU2,-326.2804878048781,-4.146341463414634,-1.707317073170732,-9.5126953125,0.23828125,-0.3388671875
681,1.949,IMU0,-334.57317073170736,-7.134146341463415,-2.987804878048781,-9.5263671875,0.197265625,-0.4453125
682,1.949,IMU1,-336.5243902439025,-6.158536585365854,1.2195121951219514,-9.5,0.1806640625,-0.44921875
683,1.949,IMU2,-333.9024390243903,-6.585365853658537,-0.1829268292682927,-9.5048828125,0.2265625,-0.3896484375
684,1.959,IMU0,-335.8536585365854,-9.390243902439025,-3.1097560975609757,-9.4619140625,0.0400390625,-0.4794921875
685,1.959,IMU1,-337.13414634146346,-8.353658536585366,1.0365853658536586,-9.4365234375,0.03515625,-0.486328125
686,1.959,IMU2,-335.00000000000006,-8.841463414634147,-0.30487804878048785,-9.44140625,0.0751953125,-0.4384765625
687,1.969,IMU0,-333.0487804878049,-8.475609756097562,-4.51219512195122,-9.408203125,0.10546875,-0.48828125
688,1.969,IMU1,-334.57317073170736,-7.682926829268293,-0.426829268292683,-9.384765625,0.1318359375,-0.49609375
689,1.969,IMU2,-332.25609756097566,-7.8048780487804885,-1.7682926829268295,-9.388671875,0.1513671875,-0.4443359375
690,1.979,IMU0,-335.5487804878049,-9.329268292682928,-3.658536585365854,-9.3779296875,0.267578125,-0.6015625
691,1.979,IMU1,-337.37804878048786,-8.109756097560977,0.6707317073170732,-9.349609375,0.2763671875,-0.59765625
692,1.979,IMU2,-334.81707317073176,-8.536585365853659,-0.7926829268292683,-9.3525390625,0.3056640625,-0.55078125
693,1.989,IMU0,-340.9756097560976,-6.585365853658537,-2.439024390243903,-9.384765625,0.1396484375,-0.54296875
694,1.989,IMU1,-342.6829268292683,-5.7926829268292686,1.8902439024390245,-9.375,0.130859375,-0.5400390625
695,1.989,IMU2,-340.1829268292683,-6.036585365853659,0.426829268292683,-9.369140625,0.1748046875,-0.4912109375
696,1.999,IMU0,-341.82926829268297,-5.914634146341464,-3.353658536585366,-9.3896484375,-0.087890625,-0.4677734375
697,1.999,IMU1,-343.2926829268293,-5.121951219512195,0.7317073170731708,-9.3720703125,-0.06640625,-0.47265625
698,1.999,IMU2,-340.9756097560976,-5.365853658536586,-0.5487804878048781,-9.376953125,-0.04296875,-0.4443359375
699,2.009,IMU0,-340.0609756097561,-7.134146341463415,-4.878048780487806,-9.3916015625,-0.0107421875,-0.5654296875
700,2.009,IMU1,-341.5243902439025,-5.853658536585367,-0.7926829268292683,-9.3876953125,0.001953125,-0.5771484375
701,2.009,IMU2,-339.26829268292687,-6.341463414634147,-2.073170731707317,-9.384765625,0.0302734375,-0.5263671875
702,2.019,IMU0,-341.89024390243907,-4.207317073170732,-6.341463414634147,-9.3740234375,0.1181640625,-0.5009765625
703,2.019,IMU1,-343.9024390243903,-3.1097560975609757,-2.0121951219512195,-9.34765625,0.13671875,-0.4921875
704,2.019,IMU2,-341.4024390243903,-3.4756097560975614,-3.536585365853659,-9.3505859375,0.162109375,-0.4482421875
705,2.029,IMU0,-345.4878048780488,-5.182926829268293,-7.134146341463415,-9.4228515625,0.025390625,-0.279296875
706,2.029,IMU1,-347.07317073170736,-4.75609756097561,-2.804878048780488,-9.404296875,0.0458984375,-0.2880859375
707,2.029,IMU2,-344.75609756097566,-4.75609756097561,-4.2682926829268295,-9.408203125,0.068359375,-0.251953125
708,2.039,IMU0,-346.5853658536586,-12.317073170731708,-7.8048780487804885,-9.3798828125,-0.0234375,-0.2841796875
709,2.039,IMU1,-347.8658536585366,-12.134146341463415,-3.536585365853659,-9.3623046875,-0.0048828125,-0.3408203125
710,2.039,IMU2,-345.609756097561,-12.073170731707318,-4.939024390243903,-9.3671875,0.0205078125,-0.2666015625
711,2.049,IMU0,-346.89024390243907,-14.329268292682928,-8.414634146341465,-9.361328125,0.1171875,-0.59765625
712,2.049,IMU1,-348.109756097561,-13.353658536585368,-4.085365853658537,-9.3310546875,0.142578125,-0.630859375
713,2.049,IMU2,-345.9146341463415,-13.658536585365855,-5.609756097560976,-9.3369140625,0.1640625,-0.57421875
714,2.059,IMU0,-348.3536585365854,-10.365853658536587,-8.292682926829269,-9.37890625,0.2392578125,-0.6259765625
715,2.059,IMU1,-349.81707317073176,-9.573170731707318,-3.7195121951219514,-9.3564453125,0.2578125,-0.6416015625
716,2.059,IMU2,-347.31707317073176,-9.756097560975611,-5.365853658536586,-9.3544921875,0.2822265625,-0.5986328125
717,2.069,IMU0,-350.609756097561,-8.414634146341465,-6.951219512195123,-9.3916015625,0.146484375,-0.50390625
718,2.069,IMU1,-352.19512195121956,-7.682926829268293,-2.378048780487805,-9.37890625,0.1513671875,-0.4970703125
719,2.069,IMU2,-349.81707317073176,-7.987804878048781,-3.9024390243902443,-9.3740234375,0.1865234375,-0.4453125
720,2.079,IMU0,-353.109756097561,-11.890243902439025,-6.7682926829268295,-9.416015625,0.0380859375,-0.50390625
721,2.079,IMU1,-354.51219512195127,-11.28048780487805,-2.25609756097561,-9.388671875,0.0576171875,-0.533203125
722,2.079,IMU2,-352.07317073170736,-11.402439024390246,-3.780487804878049,-9.3955078125,0.083984375,-0.49609375
723,2.089,IMU0,-351.70731707317077,-12.134146341463415,-7.743902439024391,-9.345703125,0.078125,-0.6787109375
724,2.089,IMU1,-352.9268292682927,-10.975609756097562,-3.414634146341464,-9.326171875,0.0986328125,-0.7099609375
725,2.089,IMU2,-350.7317073170732,-11.28048780487805,-4.817073170731708,-9.328125,0.1259765625,-0.65625
726,2.099,IMU0,-353.1707317073171,-6.402439024390245,-8.231707317073171,-9.3017578125,0.0654296875,-0.6279296875
727,2.099,IMU1,-354.81707317073176,-5.2439024390243905,-3.8414634146341466,-9.279296875,0.0791015625,-0.61328125
728,2.099,IMU2,-352.50000000000006,-5.609756097560976,-5.3048780487804885,-9.2822265625,0.1083984375,-0.5771484375
729,2.109,IMU0,-356.76829268292687,-6.829268292682928,-9.573170731707318,-9.3310546875,-0.0712890625,-0.4677734375
730,2.109,IMU1,-358.1707317073171,-5.853658536585367,-5.182926829268293,-9.3173828125,-0.0693359375,-0.455078125
731,2.109,IMU2,-355.9756097560976,-6.097560975609756,-6.646341463414635,-9.3212890625,-0.033203125,-0.421875
732,2.119,IMU0,-353.9634146341464,-11.158536585365855,-12.378048780487806,-9.3408203125,-0.0322265625,-0.4736328125
733,2.119,IMU1,-355.3048780487805,-10.365853658536587,-7.926829268292684,-9.3125,-0.00390625,-0.4912109375
734,2.119,IMU2,-353.1707317073171,-10.487804878048781,-9.451219512195122,-9.3203125,0.021484375,-0.439453125
735,2.129,IMU0,-354.0853658536586,-10.182926829268293,-13.536585365853659,-9.296875,0.1376953125,-0.56640625
736,2.129,IMU1,-355.8536585365854,-9.207317073170733,-9.085365853658537,-9.2734375,0.1669921875,-0.5673828125
737,2.129,IMU2,-353.5365853658537,-9.390243902439025,-10.609756097560977,-9.2763671875,0.189453125,-0.515625
738,2.139,IMU0,-358.4756097560976,-10.365853658536587,-12.74390243902439,-9.29296875,0.1796875,-0.509765625
739,2.139,IMU1,-359.93902439024396,-9.573170731707318,-8.109756097560977,-9.2744140625,0.1953125,-0.5126953125
740,2.139,IMU2,-357.8048780487805,-9.756097560975611,-9.695121951219512,-9.2734375,0.224609375,-0.4658203125
741,2.149,IMU0,-358.9024390243903,-11.646341463414634,-12.560975609756099,-9.232421875,0.11328125,-0.53125
742,2.149,IMU1,-360.06097560975616,-10.731707317073171,-7.987804878048781,-9.2109375,0.1298828125,-0.5537109375
743,2.149,IMU2,-358.109756097561,-10.975609756097562,-9.573170731707318,-9.2138671875,0.1591796875,-0.5068359375
744,2.159,IMU0,-358.1707317073171,-10.975609756097562,-12.134146341463415,-9.220703125,0.1591796875,-0.623046875
745,2.159,IMU1,-359.57317073170736,-9.817073170731708,-7.500000000000001,-9.197265625,0.1787109375,-0.6318359375
746,2.159,IMU2,-357.43902439024396,-10.182926829268293,-9.085365853658537,-9.201171875,0.20703125,-0.5849609375
747,2.169,IMU0,-359.69512195121956,-10.30487804878049,-11.646341463414634,-9.2353515625,0.2353515625,-0.587890625
748,2.169,IMU1,-361.2804878048781,-9.451219512195122,-6.951219512195123,-9.20703125,0.251953125,-0.6015625
749,2.169,IMU2,-359.0243902439025,-9.695121951219512,-8.536585365853659,-9.2080078125,0.2802734375,-0.5517578125
750,2.179,IMU0,-361.0975609756098,-11.341463414634147,-11.341463414634147,-9.2373046875,0.125,-0.6494140625
751,2.179,IMU1,-362.43902439024396,-10.548780487804878,-6.7682926829268295,-9.2080078125,0.1416015625,-0.6708984375
752,2.179,IMU2,-360.2439024390244,-10.731707317073171,-8.292682926829269,-9.2119140625,0.1708984375,-0.625
753,2.189,IMU0,-362.9268292682927,-8.841463414634147,-12.682926829268293,-9.208984375,-0.015625,-0.6884765625
754,2.189,IMU1,-364.26829268292687,-8.048780487804878,-8.109756097560977,-9.1728515625,0.0,-0.70703125
755,2.189,IMU2,-362.07317073170736,-8.353658536585366,-9.634146341463415,-9.1826171875,0.0302734375,-0.6611328125
756,2.199,IMU0,-361.2804878048781,-3.7195121951219514,-15.060975609756099,-9.2080078125,-0.04296875,-0.5068359375
757,2.199,IMU1,-362.56097560975616,-2.987804878048781,-10.548780487804878,-9.1904296875,-0.0234375,-0.52734375
758,2.199,IMU2,-360.4268292682927,-3.231707317073171,-12.01219512195122,-9.1962890625,0.005859375,-0.484375
759,2.209,IMU0,-360.9756097560976,-7.195121951219513,-16.76829268292683,-9.2138671875,0.19140625,-0.4853515625
760,2.209,IMU1,-362.19512195121956,-6.463414634146342,-12.195121951219512,-9.1875,0.216796875,-0.5068359375
761,2.209,IMU2,-360.00000000000006,-6.646341463414635,-13.719512195121952,-9.1884765625,0.244140625,-0.45703125
762,2.219,IMU0,-365.3658536585366,-6.036585365853659,-15.853658536585368,-9.20703125,0.1640625,-0.474609375
763,2.219,IMU1,-366.70731707317077,-5.3048780487804885,-11.158536585365855,-9.185546875,0.1767578125,-0.482421875
764,2.219,IMU2,-364.57317073170736,-5.487804878048781,-12.80487804878049,-9.185546875,0.20703125,-0.4306640625
765,2.229,IMU0,-368.109756097561,-8.902439024390244,-16.646341463414636,-9.2021484375,0.0859375,-0.4873046875
766,2.229,IMU1,-369.1463414634147,-8.292682926829269,-11.951219512195124,-9.1826171875,0.1064453125,-0.513671875
767,2.229,IMU2,-367.01219512195127,-8.536585365853659,-13.597560975609758,-9.1875,0.1357421875,-0.4755859375
768,2.239,IMU0,-362.01219512195127,-7.317073170731708,-16.70731707317073,-9.197265625,0.279296875,-0.58984375
769,2.239,IMU1,-363.109756097561,-6.52439024390244,-12.073170731707318,-9.17578125,0.3017578125,-0.607421875
770,2.239,IMU2,-361.0365853658537,-6.646341463414635,-13.658536585365855,-9.1767578125,0.330078125,-0.5595703125
771,2.249,IMU0,-362.01219512195127,-7.317073170731708,-16.70731707317073,-9.197265625,0.279296875,-0.58984375
772,2.249,IMU1,-369.0243902439025,-5.365853658536586,-9.817073170731708,-9.1533203125,0.3662109375,-0.6015625
773,2.249,IMU2,-366.95121951219517,-5.487804878048781,-11.402439024390246,-9.1533203125,0.392578125,-0.5400390625
774,2.259,IMU0,-370.9146341463415,-6.951219512195123,-13.414634146341465,-9.2275390625,0.15625,-0.4560546875
775,2.259,IMU1,-372.25609756097566,-6.341463414634147,-8.658536585365855,-9.2041015625,0.1708984375,-0.470703125
776,2.259,IMU2,-370.00000000000006,-6.585365853658537,-10.24390243902439,-9.2060546875,0.197265625,-0.423828125
777,2.269,IMU0,-367.50000000000006,-10.914634146341465,-14.51219512195122,-9.2275390625,0.0849609375,-0.6640625
778,2.269,IMU1,-368.5975609756098,-10.121951219512196,-9.939024390243903,-9.1982421875,0.107421875,-0.6923828125
779,2.269,IMU2,-366.4634146341464,-10.24390243902439,-11.52439024390244,-9.2041015625,0.140625,-0.64453125
780,2.279,IMU0,-368.4146341463415,-5.426829268292684,-16.097560975609756,-9.1884765625,0.1552734375,-0.7490234375
781,2.279,IMU1,-369.69512195121956,-4.634146341463415,-11.463414634146343,-9.1630859375,0.1787109375,-0.7607421875
782,2.279,IMU2,-367.6829268292683,-4.695121951219512,-13.04878048780488,-9.1669921875,0.212890625,-0.708984375
783,2.289,IMU0,-369.63414634146346,0.48780487804878053,-16.463414634146343,-9.17578125,0.16796875,-0.576171875
784,2.289,IMU1,-370.9756097560976,1.2804878048780488,-11.707317073170733,-9.15625,0.1826171875,-0.5810546875
785,2.289,IMU2,-368.8414634146342,1.2804878048780488,-13.231707317073171,-9.162109375,0.2080078125,-0.53125
786,2.299,IMU0,-371.76829268292687,-0.9146341463414634,-17.926829268292686,-9.2275390625,0.0546875,-0.3505859375
787,2.299,IMU1,-373.2317073170732,-0.12195121951219513,-13.170731707317074,-9.205078125,0.080078125,-0.3603515625
788,2.299,IMU2,-370.9146341463415,-0.3658536585365854,-14.756097560975611,-9.2099609375,0.111328125,-0.3056640625
789,2.309,IMU0,-370.12195121951225,-5.975609756097562,-18.658536585365855,-9.1318359375,0.234375,-0.435546875
790,2.309,IMU1,-371.4024390243903,-5.060975609756098,-13.902439024390246,-9.109375,0.2578125,-0.455078125
791,2.309,IMU2,-369.0853658536586,-5.182926829268293,-15.54878048780488,-9.11328125,0.2900390625,-0.4130859375
792,2.319,IMU0,-371.82926829268297,-4.207317073170732,-18.29268292682927,-9.1904296875,0.31640625,-0.54296875
793,2.319,IMU1,-373.2926829268293,-3.2926829268292686,-13.475609756097562,-9.1669921875,0.3388671875,-0.5625
794,2.319,IMU2,-371.219512195122,-3.414634146341464,-15.060975609756099,-9.169921875,0.37109375,-0.5126953125
795,2.329,IMU0,-375.06097560975616,-3.353658536585366,-17.195121951219512,-9.158203125,0.3017578125,-0.4140625
796,2.329,IMU1,-376.4634146341464,-2.6219512195121952,-12.317073170731708,-9.1376953125,0.32421875,-0.4404296875
797,2.329,IMU2,-374.0853658536586,-2.804878048780488,-13.902439024390246,-9.14453125,0.35546875,-0.3984375
798,2.339,IMU0,-372.9878048780488,-6.341463414634147,-15.609756097560977,-9.212890625,0.2587890625,-0.4306640625
799,2.339,IMU1,-374.45121951219517,-5.548780487804878,-10.731707317073171,-9.1875,0.2822265625,-0.4443359375
800,2.339,IMU2,-372.19512195121956,-5.731707317073171,-12.378048780487806,-9.1865234375,0.314453125,-0.3876953125
801,2.349,IMU0,-376.5243902439025,-7.500000000000001,-15.000000000000002,-9.1943359375,0.2412109375,-0.521484375
802,2.349,IMU1,-377.9878048780488,-6.829268292682928,-10.121951219512196,-9.169921875,0.26171875,-0.5380859375
803,2.349,IMU2,-375.7926829268293,-6.890243902439025,-11.76829268292683,-9.1689453125,0.2900390625,-0.498046875
804,2.359,IMU0,-374.87804878048786,-6.463414634146342,-14.695121951219514,-9.1796875,0.23828125,-0.599609375
805,2.359,IMU1,-376.2804878048781,-5.670731707317073,-9.817073170731708,-9.154296875,0.2587890625,-0.623046875
806,2.359,IMU2,-373.9024390243903,-5.7926829268292686,-11.463414634146343,-9.15625,0.2939453125,-0.587890625
807,2.369,IMU0,-376.5243902439025,-3.1707317073170733,-14.26829268292683,-9.15234375,0.224609375,-0.623046875
808,2.369,IMU1,-378.109756097561,-2.439024390243903,-9.451219512195122,-9.1279296875,0.244140625,-0.63671875
809,2.369,IMU2,-375.9146341463415,-2.3170731707317076,-11.036585365853659,-9.1357421875,0.2666015625,-0.591796875
810,2.379,IMU0,-378.9634146341464,0.30487804878048785,-15.609756097560977,-9.1962890625,0.0537109375,-0.443359375
811,2.379,IMU1,-380.3658536585366,1.0975609756097562,-10.670731707317074,-9.1748046875,0.07421875,-0.46875
812,2.379,IMU2,-378.0487804878049,0.9756097560975611,-12.378048780487806,-9.1826171875,0.109375,-0.431640625
813,2.389,IMU0,-375.3048780487805,-2.25609756097561,-16.890243902439025,-9.1103515625,0.12890625,-0.3857421875
814,2.389,IMU1,-376.6463414634147,-1.5853658536585367,-11.951219512195124,-9.08984375,0.150390625,-0.41015625
815,2.389,IMU2,-374.39024390243907,-1.524390243902439,-13.597560975609758,-9.091796875,0.1884765625,-0.3681640625
816,2.399,IMU0,-377.56097560975616,-1.829268292682927,-16.70731707317073,-9.1083984375,0.2978515625,-0.427734375
817,2.399,IMU1,-379.0853658536586,-1.2195121951219514,-11.76829268292683,-9.083984375,0.3203125,-0.4365234375
818,2.399,IMU2,-377.07317073170736,-1.0365853658536586,-13.414634146341465,-9.08984375,0.3486328125,-0.3759765625
819,2.409,IMU0,-383.2317073170732,-2.7439024390243905,-15.975609756097562,-9.1552734375,0.1943359375,-0.3525390625
820,2.409,IMU1,-384.69512195121956,-2.3170731707317076,-10.914634146341465,-9.130859375,0.2177734375,-0.3720703125
821,2.409,IMU2,-382.50000000000006,-2.439024390243903,-12.560975609756099,-9.1279296875,0.2431640625,-0.3056640625
822,2.419,IMU0,-380.3658536585366,-5.609756097560976,-16.34146341463415,-9.1318359375,0.138671875,-0.3583984375
823,2.419,IMU1,-381.70731707317077,-5.0,-11.463414634146343,-9.109375,0.162109375,-0.3818359375
824,2.419,IMU2,-379.32926829268297,-5.2439024390243905,-13.04878048780488,-9.1064453125,0.19140625,-0.35546875
825,2.429,IMU0,-380.3658536585366,-5.121951219512195,-15.79268292682927,-9.1142578125,0.3291015625,-0.4150390625
826,2.429,IMU1,-381.6463414634147,-4.390243902439025,-10.975609756097562,-9.091796875,0.3515625,-0.42578125
827,2.429,IMU2,-379.57317073170736,-4.695121951219512,-12.500000000000002,-9.091796875,0.3818359375,-0.3828125
828,2.439,IMU0,-385.06097560975616,-4.695121951219512,-14.329268292682928,-9.1201171875,0.2841796875,-0.3876953125
829,2.439,IMU1,-386.4634146341464,-4.024390243902439,-9.390243902439025,-9.09765625,0.3076171875,-0.4072265625
830,2.439,IMU2,-384.26829268292687,-4.2682926829268295,-11.097560975609756,-9.0947265625,0.33203125,-0.34765625
831,2.449,IMU0,-385.9756097560976,-6.52439024390244,-13.109756097560977,-9.0732421875,0.134765625,-0.455078125
832,2.449,IMU1,-387.56097560975616,-5.975609756097562,-8.170731707317074,-9.052734375,0.16015625,-0.47265625
833,2.449,IMU2,-385.00000000000006,-5.853658536585367,-9.878048780487806,-9.05859375,0.177734375,-0.439453125
834,2.459,IMU0,-385.12195121951225,-2.5,-14.146341463414636,-9.1015625,0.154296875,-0.515625
835,2.459,IMU1,-386.5243902439025,-1.9512195121951221,-9.146341463414634,-9.0791015625,0.177734375,-0.5380859375
836,2.459,IMU2,-384.39024390243907,-1.7682926829268295,-10.792682926829269,-9.0771484375,0.2021484375,-0.474609375
837,2.469,IMU0,-385.2439024390244,-1.0975609756097562,-15.365853658536587,-9.0634765625,0.173828125,-0.400390625
838,2.469,IMU1,-386.76829268292687,-0.426829268292683,-10.365853658536587,-9.0390625,0.1943359375,-0.4248046875
839,2.469,IMU2,-384.32926829268297,-0.3658536585365854,-12.01219512195122,-9.0498046875,0.2353515625,-0.3671875
840,2.479,IMU0,-386.219512195122,-0.1829268292682927,-14.51219512195122,-9.12109375,0.14453125,-0.36328125
841,2.479,IMU1,-387.62195121951225,0.6707317073170732,-9.51219512195122,-9.1015625,0.1689453125,-0.3818359375
842,2.479,IMU2,-385.609756097561,0.6097560975609757,-11.219512195121952,-9.1103515625,0.201171875,-0.3125
843,2.489,IMU0,-390.18292682926835,-2.8658536585365857,-15.121951219512196,-9.109375,0.08203125,-0.3037109375
844,2.489,IMU1,-391.76829268292687,-2.0121951219512195,-10.121951219512196,-9.091796875,0.1083984375,-0.32421875
845,2.489,IMU2,-389.45121951219517,-2.3170731707317076,-11.76829268292683,-9.0859375,0.142578125,-0.26953125
846,2.499,IMU0,-386.95121951219517,-3.536585365853659,-16.402439024390244,-9.103515625,0.0830078125,-0.310546875
847,2.499,IMU1,-388.6585365853659,-2.6219512195121952,-11.402439024390246,-9.0791015625,0.103515625,-0.3203125
848,2.499,IMU2,-385.9756097560976,-2.7439024390243905,-13.04878048780488,-9.08984375,0.14453125,-0.2958984375
849,2.509,IMU0,-386.3414634146342,-3.353658536585366,-17.012195121951223,-9.1259765625,0.298828125,-0.30078125
850,2.509,IMU1,-387.9878048780488,-2.439024390243903,-12.073170731707318,-9.1044921875,0.318359375,-0.31640625
851,2.509,IMU2,-385.609756097561,-2.5,-13.658536585365855,-9.103515625,0.3662109375,-0.26171875
852,2.519,IMU0,-391.3414634146342,-6.2804878048780495,-14.02439024390244,-9.1220703125,0.275390625,-0.14453125
853,2.519,IMU1,-392.68292682926835,-5.2439024390243905,-9.085365853658537,-9.1015625,0.310546875,-0.1552734375
854,2.519,IMU2,-390.7317073170732,-6.097560975609756,-10.548780487804878,-9.091796875,0.31640625,-0.09765625
855,2.529,IMU0,-395.7317073170732,-14.02439024390244,-13.963414634146343,-9.087890625,0.0634765625,-0.490234375
856,2.529,IMU1,-397.13414634146346,-13.29268292682927,-8.963414634146343,-9.0693359375,0.0908203125,-0.5068359375
857,2.529,IMU2,-394.51219512195127,-13.475609756097562,-10.792682926829269,-9.064453125,0.1123046875,-0.484375
858,2.539,IMU0,-388.9024390243903,-3.2926829268292686,-15.182926829268293,-9.037109375,0.12890625,-0.580078125
859,2.539,IMU1,-390.4878048780488,-2.9268292682926833,-10.121951219512196,-9.0185546875,0.146484375,-0.6103515625
860,2.539,IMU2,-387.62195121951225,-2.1341463414634148,-11.890243902439025,-9.0166015625,0.1904296875,-0.5693359375
861,2.549,IMU0,-389.87804878048786,1.3414634146341464,-14.390243902439027,-9.1201171875,0.2490234375,-0.3291015625
862,2.549,IMU1,-390.9756097560976,2.25609756097561,-9.329268292682928,-9.08984375,0.2783203125,-0.341796875
863,2.549,IMU2,-389.39024390243907,1.7682926829268295,-10.914634146341465,-9.1005859375,0.302734375,-0.275390625
864,2.559,IMU0,-397.07317073170736,-2.8658536585365857,-13.475609756097562,-9.1201171875,0.0283203125,-0.275390625
865,2.559,IMU1,-398.2926829268293,-2.073170731707317,-8.231707317073171,-9.0966796875,0.0595703125,-0.29296875
866,2.559,IMU2,-396.0975609756098,-2.439024390243903,-10.121951219512196,-9.1103515625,0.0751953125,-0.2548828125
867,2.569,IMU0,-392.56097560975616,-2.682926829268293,-14.939024390243905,-9.04296875,-0.1171875,-0.3505859375
868,2.569,IMU1,-394.1463414634147,-2.1951219512195124,-9.756097560975611,-9.0283203125,-0.0966796875,-0.38671875
869,2.569,IMU2,-391.5853658536586,-1.8902439024390245,-11.76829268292683,-9.03515625,-0.0673828125,-0.3505859375
870,2.579,IMU0,-391.1585365853659,0.9146341463414634,-16.219512195121954,-9.1416015625,0.056640625,-0.2490234375
871,2.579,IMU1,-392.37804878048786,1.707317073170732,-11.097560975609756,-9.12109375,0.0888671875,-0.263671875
872,2.579,IMU2,-390.609756097561,1.4634146341463417,-12.80487804878049,-9.1181640625,0.1201171875,-0.2138671875
873,2.589,IMU0,-395.609756097561,-4.939024390243903,-16.585365853658537,-9.1162109375,0.0986328125,-0.23828125
874,2.589,IMU1,-396.76829268292687,-4.085365853658537,-11.52439024390244,-9.1044921875,0.1259765625,-0.2431640625
875,2.589,IMU2,-394.87804878048786,-4.634146341463415,-13.109756097560977,-9.107421875,0.1572265625,-0.1904296875
876,2.599,IMU0,-395.7317073170732,-5.121951219512195,-17.5609756097561,-9.1064453125,-0.083984375,-0.2314453125
877,2.599,IMU1,-397.13414634146346,-4.2682926829268295,-12.378048780487806,-9.0859375,-0.064453125,-0.23828125
878,2.599,IMU2,-394.57317073170736,-4.75609756097561,-14.146341463414636,-9.0869140625,-0.03515625,-0.1796875
879,2.609,IMU0,-394.39024390243907,-6.036585365853659,-18.597560975609756,-9.119140625,0.0419921875,-0.265625
880,2.609,IMU1,-395.9756097560976,-5.2439024390243905,-13.475609756097562,-9.1005859375,0.06640625,-0.26953125
881,2.609,IMU2,-393.2317073170732,-5.731707317073171,-15.182926829268293,-9.103515625,0.09375,-0.2197265625
882,2.619,IMU0,-394.75609756097566,-8.048780487804878,-17.134146341463417,-9.0859375,0.2509765625,-0.3623046875
883,2.619,IMU1,-395.9756097560976,-7.134146341463415,-12.195121951219512,-9.0625,0.271484375,-0.357421875
884,2.619,IMU2,-393.7804878048781,-7.134146341463415,-13.963414634146343,-9.060546875,0.30078125,-0.3046875
885,2.629,IMU0,-400.3658536585366,-5.853658536585367,-15.121951219512196,-9.0361328125,0.0693359375,-0.5263671875
886,2.629,IMU1,-401.5243902439025,-5.731707317073171,-10.060975609756099,-9.017578125,0.10546875,-0.544921875
887,2.629,IMU2,-399.20731707317077,-6.097560975609756,-11.76829268292683,-9.0205078125,0.142578125,-0.49609375
888,2.639,IMU0,-398.4756097560976,-1.0365853658536586,-15.914634146341465,-9.0849609375,-0.0703125,-0.283203125
889,2.639,IMU1,-400.00000000000006,-0.12195121951219513,-10.731707317073171,-9.06640625,-0.041015625,-0.31640625
890,2.639,IMU2,-397.9878048780488,-0.1829268292682927,-12.500000000000002,-9.0673828125,-0.0087890625,-0.28125
891,2.649,IMU0,-393.8414634146342,-5.548780487804878,-15.79268292682927,-9.0009765625,0.1220703125,-0.380859375
892,2.649,IMU1,-395.12195121951225,-4.75609756097561,-10.792682926829269,-8.97265625,0.146484375,-0.38671875
893,2.649,IMU2,-392.9878048780488,-4.878048780487806,-12.560975609756099,-8.9716796875,0.1748046875,-0.3330078125
894,2.659,IMU0,-402.07317073170736,-3.231707317073171,-15.182926829268293,-8.98828125,-0.044921875,-0.43359375
895,2.659,IMU1,-403.1707317073171,-2.6219512195121952,-9.939024390243903,-8.96875,-0.0078125,-0.443359375
896,2.659,IMU2,-400.8536585365854,-2.804878048780488,-11.585365853658537,-8.974609375,0.025390625,-0.390625
897,2.669,IMU0,-401.4634146341464,-0.7926829268292683,-17.073170731707318,-8.953125,-0.2314453125,-0.298828125
898,2.669,IMU1,-403.0487804878049,-0.426829268292683,-11.76829268292683,-8.939453125,-0.1904296875,-0.341796875
899,2.669,IMU2,-400.9756097560976,-0.7317073170731708,-13.414634146341465,-8.9453125,-0.15625,-0.30859375
900,2.679,IMU0,-396.2804878048781,-2.0121951219512195,-19.26829268292683,-9.0439453125,-0.107421875,-0.1953125
901,2.679,IMU1,-397.50000000000006,-0.853658536585366,-14.146341463414636,-9.0146484375,-0.0810546875,-0.2099609375
902,2.679,IMU2,-395.24390243902445,-0.9756097560975611,-15.853658536585368,-9.015625,-0.05078125,-0.15625
903,2.689,IMU0,-402.8048780487805,-6.829268292682928,-20.243902439024392,-9.02734375,-0.001953125,-0.361328125
904,2.689,IMU1,-403.7804878048781,-6.158536585365854,-15.000000000000002,-9.0126953125,0.0146484375,-0.365234375
905,2.689,IMU2,-401.4634146341464,-6.402439024390245,-16.76829268292683,-9.0146484375,0.046875,-0.3134765625
906,2.699,IMU0,-401.70731707317077,-3.5975609756097566,-20.365853658536587,-8.9658203125,-0.0712890625,-0.349609375
907,2.699,IMU1,-403.1707317073171,-2.9268292682926833,-14.939024390243905,-8.9404296875,-0.052734375,-0.3759765625
908,2.699,IMU2,-400.9756097560976,-3.2926829268292686,-16.70731707317073,-8.9453125,-0.01953125,-0.3359375
909,2.709,IMU0,-402.68292682926835,-2.25609756097561,-19.512195121951223,-8.9921875,-0.01953125,-0.3466796875
910,2.709,IMU1,-403.4146341463415,-1.829268292682927,-14.207317073170733,-8.9658203125,0.0126953125,-0.373046875
911,2.709,IMU2,-401.219512195122,-2.073170731707317,-15.914634146341465,-8.96875,0.0458984375,-0.3212890625
912,2.719,IMU0,-403.7804878048781,-4.451219512195122,-19.146341463414636,-9.0283203125,0.0859375,-0.291015625
913,2.719,IMU1,-405.3048780487805,-3.414634146341464,-13.963414634146343,-9.0029296875,0.1015625,-0.3076171875
914,2.719,IMU2,-402.74390243902445,-3.536585365853659,-15.731707317073171,-9.0009765625,0.134765625,-0.2666015625
915,2.729,IMU0,-401.76829268292687,-7.378048780487806,-16.70731707317073,-8.9658203125,0.1201171875,-0.486328125
916,2.729,IMU1,-403.1707317073171,-6.52439024390244,-11.585365853658537,-8.93359375,0.1455078125,-0.4755859375
917,2.729,IMU2,-400.6707317073171,-6.646341463414635,-13.353658536585368,-8.9296875,0.1787109375,-0.4228515625
918,2.739,IMU0,-408.3536585365854,-3.048780487804878,-16.52439024390244,-9.021484375,-0.130859375,-0.4892578125
919,2.739,IMU1,-409.69512195121956,-2.1341463414634148,-11.036585365853659,-8.990234375,-0.107421875,-0.5185546875
920,2.739,IMU2,-407.43902439024396,-2.25609756097561,-12.80487804878049,-8.9921875,-0.0712890625,-0.4697265625
921,2.749,IMU0,-404.39024390243907,-1.707317073170732,-17.804878048780488,-9.115234375,-0.193359375,-0.4296875
922,2.749,IMU1,-406.2804878048781,-0.6707317073170732,-12.378048780487806,-9.0966796875,-0.1669921875,-0.4482421875
923,2.749,IMU2,-404.0243902439025,-0.853658536585366,-14.085365853658537,-9.0986328125,-0.130859375,-0.412109375
924,2.759,IMU0,-402.68292682926835,-3.658536585365854,-19.390243902439025,-9.0185546875,-0.1171875,-0.5439453125
925,2.759,IMU1,-403.7804878048781,-3.048780487804878,-14.085365853658537,-8.998046875,-0.0908203125,-0.53125
926,2.759,IMU2,-401.5853658536586,-2.987804878048781,-15.853658536585368,-9.0,-0.0556640625,-0.490234375
927,2.769,IMU0,-406.76829268292687,1.0975609756097562,-20.60975609756098,-8.95703125,-0.1064453125,-0.4267578125
928,2.769,IMU1,-407.9878048780488,1.6463414634146343,-15.243902439024392,-8.931640625,-0.080078125,-0.44140625
929,2.769,IMU2,-405.6707317073171,1.6463414634146343,-16.951219512195124,-8.93359375,-0.0439453125,-0.390625
930,2.779,IMU0,-404.93902439024396,-1.524390243902439,-21.219512195121954,-8.955078125,-0.1123046875,-0.3916015625
931,2.779,IMU1,-406.6463414634147,-0.853658536585366,-15.853658536585368,-8.947265625,-0.09765625,-0.4130859375
932,2.779,IMU2,-404.32926829268297,-0.9756097560975611,-17.621951219512198,-8.9501953125,-0.0615234375,-0.3779296875
933,2.789,IMU0,-405.8536585365854,0.1829268292682927,-21.097560975609756,-8.91015625,-0.048828125,-0.376953125
934,2.789,IMU1,-407.01219512195127,0.853658536585366,-15.731707317073171,-8.8857421875,-0.021484375,-0.3935546875
935,2.789,IMU2,-404.93902439024396,0.7317073170731708,-17.5,-8.88671875,0.0087890625,-0.349609375
936,2.799,IMU0,-407.56097560975616,-1.3414634146341464,-19.939024390243905,-8.9169921875,0.037109375,-0.37890625
937,2.799,IMU1,-408.719512195122,-0.6707317073170732,-14.695121951219514,-8.8759765625,0.0654296875,-0.388671875
938,2.799,IMU2,-406.5853658536586,-0.6707317073170732,-16.52439024390244,-8.8798828125,0.099609375,-0.333984375
939,2.809,IMU0,-407.74390243902445,-3.353658536585366,-18.53658536585366,-8.9736328125,0.0,-0.361328125
940,2.809,IMU1,-408.9024390243903,-1.9512195121951221,-13.353658536585368,-8.9462890625,0.0185546875,-0.3642578125
941,2.809,IMU2,-406.5243902439025,-2.1951219512195124,-15.060975609756099,-8.94921875,0.0546875,-0.310546875
942,2.819,IMU0,-409.20731707317077,-5.2439024390243905,-17.98780487804878,-8.8916015625,-0.0791015625,-0.51953125
943,2.819,IMU1,-410.6707317073171,-4.451219512195122,-12.621951219512196,-8.8798828125,-0.056640625,-0.509765625
944,2.819,IMU2,-408.2926829268293,-4.573170731707317,-14.390243902439027,-8.87890625,-0.0205078125,-0.47265625
945,2.829,IMU0,-408.1707317073171,-2.8658536585365857,-18.29268292682927,-8.91796875,-0.1259765625,-0.61328125
946,2.829,IMU1,-409.81707317073176,-2.1341463414634148,-12.865853658536587,-8.8837890625,-0.0966796875,-0.6103515625
947,2.829,IMU2,-407.31707317073176,-2.1951219512195124,-14.634146341463415,-8.8916015625,-0.06640625,-0.5791015625
948,2.839,IMU0,-408.2317073170732,0.7317073170731708,-19.695121951219512,-8.98046875,-0.09765625,-0.5673828125
949,2.839,IMU1,-409.69512195121956,1.6463414634146343,-14.207317073170733,-8.947265625,-0.0888671875,-0.55078125
950,2.839,IMU2,-407.13414634146346,1.402439024390244,-15.975609756097562,-8.9541015625,-0.046875,-0.5146484375
951,2.849,IMU0,-407.56097560975616,-0.5487804878048781,-19.878048780487806,-8.9248046875,-0.09765625,-0.529296875
952,2.849,IMU1,-408.9634146341464,0.24390243902439027,-14.451219512195124,-8.900390625,-0.06640625,-0.556640625
953,2.849,IMU2,-406.5853658536586,0.12195121951219513,-16.219512195121954,-8.8984375,-0.0244140625,-0.5234375
954,2.859,IMU0,-409.39024390243907,3.7195121951219514,-19.634146341463417,-8.9111328125,-0.107421875,-0.576171875
955,2.859,IMU1,-410.4268292682927,3.7195121951219514,-14.146341463414636,-8.890625,-0.083984375,-0.59765625
956,2.859,IMU2,-408.1707317073171,3.780487804878049,-15.914634146341465,-8.8984375,-0.056640625,-0.5576171875
957,2.869,IMU0,-408.2926829268293,4.390243902439025,-20.79268292682927,-8.96484375,-0.0693359375,-0.42578125
958,2.869,IMU1,-409.87804878048786,5.0,-15.426829268292684,-8.9423828125,-0.0390625,-0.439453125
959,2.869,IMU2,-407.68292682926835,4.878048780487806,-17.134146341463417,-8.947265625,-0.001953125,-0.4033203125
960,2.879,IMU0,-405.24390243902445,1.2804878048780488,-20.0609756097561,-8.8955078125,0.0888671875,-0.3916015625
961,2.879,IMU1,-406.1585365853659,1.9512195121951221,-15.000000000000002,-8.8671875,0.1181640625,-0.4091796875
962,2.879,IMU2,-404.0853658536586,1.829268292682927,-16.646341463414636,-8.8564453125,0.16015625,-0.3564453125
963,2.889,IMU0,-411.3414634146342,0.6097560975609757,-18.475609756097562,-8.9658203125,-0.005859375,-0.4140625
964,2.889,IMU1,-412.68292682926835,1.402439024390244,-13.04878048780488,-8.943359375,0.0205078125,-0.4267578125
965,2.889,IMU2,-410.30487804878055,1.2804878048780488,-14.817073170731708,-8.94921875,0.0498046875,-0.369140625
966,2.899,IMU0,-411.1585365853659,-1.2195121951219514,-19.02439024390244,-9.03515625,-0.041015625,-0.494140625
967,2.899,IMU1,-411.82926829268297,-0.5487804878048781,-13.597560975609758,-9.0126953125,-0.013671875,-0.521484375
968,2.899,IMU2,-410.00000000000006,-0.6707317073170732,-15.365853658536587,-9.0126953125,0.025390625,-0.48046875
969,2.909,IMU0,-405.609756097561,0.24390243902439027,-18.78048780487805,-8.9306640625,0.04296875,-0.505859375
970,2.909,IMU1,-407.43902439024396,0.853658536585366,-13.29268292682927,-8.90625,0.0693359375,-0.5205078125
971,2.909,IMU2,-405.00000000000006,0.9146341463414634,-15.121951219512196,-8.9111328125,0.1083984375,-0.478515625
972,2.919,IMU0,-412.74390243902445,0.853658536585366,-18.10975609756098,-8.845703125,-0.04296875,-0.541015625
973,2.919,IMU1,-414.69512195121956,1.829268292682927,-12.74390243902439,-8.8232421875,-0.017578125,-0.5478515625
974,2.919,IMU2,-412.13414634146346,1.6463414634146343,-14.51219512195122,-8.83203125,0.015625,-0.5009765625
975,2.929,IMU0,-409.51219512195127,1.3414634146341464,-17.926829268292686,-8.818359375,-0.060546875,-0.5947265625
976,2.929,IMU1,-410.3658536585366,2.5,-12.560975609756099,-8.79296875,-0.0400390625,-0.609375
977,2.929,IMU2,-408.2926829268293,2.1951219512195124,-14.329268292682928,-8.7978515625,-0.0009765625,-0.5791015625
978,2.939,IMU0,-406.76829268292687,4.51219512195122,-18.29268292682927,-8.7490234375,0.0859375,-0.6123046875
979,2.939,IMU1,-409.1463414634147,5.975609756097562,-12.682926829268293,-8.7294921875,0.1259765625,-0.6025390625
980,2.939,IMU2,-406.4024390243903,5.487804878048781,-14.51219512195122,-8.7255859375,0.1533203125,-0.56640625
981,2.949,IMU0,-411.76829268292687,7.8048780487804885,-17.31707317073171,-8.8623046875,-0.0205078125,-0.4365234375
982,2.949,IMU1,-413.719512195122,8.231707317073171,-11.76829268292683,-8.841796875,-0.0068359375,-0.43359375
983,2.949,IMU2,-411.0975609756098,8.231707317073171,-13.536585365853659,-8.84375,0.0341796875,-0.3876953125
984,2.959,IMU0,-409.63414634146346,2.5,-17.25609756097561,-8.767578125,-0.0673828125,-0.408203125
985,2.959,IMU1,-410.7317073170732,2.7439024390243905,-11.76829268292683,-8.7236328125,-0.046875,-0.451171875
986,2.959,IMU2,-408.5365853658537,2.7439024390243905,-13.536585365853659,-8.732421875,-0.005859375,-0.3994140625
987,2.969,IMU0,-408.4756097560976,5.670731707317073,-18.04878048780488,-8.7041015625,-0.00390625,-0.427734375
988,2.969,IMU1,-410.24390243902445,6.585365853658537,-12.682926829268293,-8.671875,0.037109375,-0.4384765625
989,2.969,IMU2,-407.8048780487805,6.341463414634147,-14.451219512195124,-8.6796875,0.064453125,-0.4033203125
990,2.979,IMU0,-411.76829268292687,3.963414634146342,-17.439024390243905,-8.650390625,0.0205078125,-0.234375
991,2.979,IMU1,-413.719512195122,3.780487804878049,-11.890243902439025,-8.609375,0.0390625,-0.2548828125
992,2.979,IMU2,-411.1585365853659,4.085365853658537,-13.78048780487805,-8.615234375,0.0810546875,-0.197265625
993,2.989,IMU0,-412.07317073170736,-2.378048780487805,-16.646341463414636,-8.505859375,-0.0556640625,-0.390625
994,2.989,IMU1,-413.4756097560976,-1.9512195121951221,-11.219512195121952,-8.4697265625,-0.02734375,-0.453125
995,2.989,IMU2,-411.0365853658537,-1.8902439024390245,-13.04878048780488,-8.4775390625,0.00390625,-0.388671875
996,2.999,IMU0,-412.37804878048786,0.0,-17.5,-8.365234375,0.0224609375,-0.5546875
997,2.999,IMU1,-413.9024390243903,1.2804878048780488,-12.01219512195122,-8.3349609375,0.0615234375,-0.58984375
998,2.999,IMU2,-411.4634146341464,0.9756097560975611,-13.841463414634148,-8.3408203125,0.087890625,-0.5478515625
999,3.009,IMU0,-411.6463414634147,4.75609756097561,-16.890243902439025,-8.2431640625,0.0576171875,-0.4140625
1000,3.009,IMU1,-413.2317073170732,5.182926829268293,-11.402439024390246,-8.2109375,0.0947265625,-0.4365234375
1001,3.009,IMU2,-410.6707317073171,5.2439024390243905,-13.170731707317074,-8.2158203125,0.1240234375,-0.396484375
1002,3.019,IMU0,-413.5365853658537,2.3170731707317076,-14.756097560975611,-8.064453125,0.083984375,-0.4306640625
1003,3.019,IMU1,-415.4878048780488,2.987804878048781,-9.085365853658537,-8.0390625,0.1025390625,-0.451171875
1004,3.019,IMU2,-412.8658536585366,2.9268292682926833,-10.975609756097562,-8.037109375,0.140625,-0.3984375
1005,3.029,IMU0,-415.5487804878049,1.5853658536585367,-13.963414634146343,-7.8740234375,0.0185546875,-0.5244140625
1006,3.029,IMU1,-416.95121951219517,2.5,-8.353658536585366,-7.8330078125,0.0419921875,-0.5380859375
1007,3.029,IMU2,-414.51219512195127,2.1341463414634148,-10.182926829268293,-7.8408203125,0.0771484375,-0.4951171875
1008,3.039,IMU0,-414.45121951219517,6.341463414634147,-14.146341463414636,-7.6962890625,-0.087890625,-0.421875
1009,3.039,IMU1,-415.8536585365854,7.560975609756098,-8.658536585365855,-7.6552734375,-0.0634765625,-0.4130859375
1010,3.039,IMU2,-413.4756097560976,7.134146341463415,-10.426829268292684,-7.6640625,-0.02734375,-0.3779296875
1011,3.049,IMU0,-414.1463414634147,4.024390243902439,-14.451219512195124,-7.552734375,-0.0361328125,-0.23828125
1012,3.049,IMU1,-415.9146341463415,4.329268292682928,-8.902439024390244,-7.521484375,0.0,-0.248046875
1013,3.049,IMU2,-413.2926829268293,4.2682926829268295,-10.731707317073171,-7.521484375,0.0322265625,-0.208984375
1014,3.059,IMU0,-416.76829268292687,-0.12195121951219513,-13.963414634146343,-7.369140625,-0.05078125,-0.3486328125
1015,3.059,IMU1,-418.4756097560976,0.48780487804878053,-8.414634146341465,-7.328125,-0.033203125,-0.3837890625
1016,3.059,IMU2,-415.8536585365854,0.24390243902439027,-10.24390243902439,-7.3369140625,0.00390625,-0.33203125
1017,3.069,IMU0,-419.51219512195127,0.7317073170731708,-15.121951219512196,-7.203125,-0.1943359375,-0.3701171875
1018,3.069,IMU1,-420.9756097560976,1.6463414634146343,-9.756097560975611,-7.171875,-0.162109375,-0.416015625
1019,3.069,IMU2,-418.5365853658537,1.4634146341463417,-11.52439024390244,-7.1806640625,-0.1298828125,-0.373046875
1020,3.079,IMU0,-415.18292682926835,1.524390243902439,-16.463414634146343,-7.046875,-0.060546875,-0.2939453125
1021,3.079,IMU1,-416.5853658536586,2.1341463414634148,-10.975609756097562,-7.0087890625,-0.009765625,-0.3486328125
1022,3.079,IMU2,-414.26829268292687,2.073170731707317,-12.80487804878049,-7.0146484375,0.015625,-0.30078125
1023,3.089,IMU0,-417.31707317073176,0.0,-14.878048780487806,-6.86328125,0.087890625,-0.3994140625
1024,3.089,IMU1,-419.39024390243907,0.9756097560975611,-9.207317073170733,-6.826171875,0.119140625,-0.41796875
1025,3.089,IMU2,-416.76829268292687,0.7926829268292683,-11.097560975609756,-6.8271484375,0.1513671875,-0.369140625
1026,3.099,IMU0,-423.0487804878049,0.853658536585366,-13.719512195121952,-6.689453125,-0.0478515625,-0.349609375
1027,3.099,IMU1,-424.51219512195127,1.524390243902439,-8.109756097560977,-6.666015625,-0.017578125,-0.3798828125
1028,3.099,IMU2,-422.01219512195127,1.3414634146341464,-9.939024390243903,-6.6650390625,0.0146484375,-0.33984375
1029,3.109,IMU0,-418.1707317073171,1.2195121951219514,-13.170731707317074,-6.5947265625,0.0068359375,-0.3564453125
1030,3.109,IMU1,-419.45121951219517,1.829268292682927,-7.439024390243903,-6.5654296875,0.0517578125,-0.390625
1031,3.109,IMU2,-416.95121951219517,1.829268292682927,-9.329268292682928,-6.56640625,0.080078125,-0.349609375
1032,3.119,IMU0,-421.0365853658537,-0.12195121951219513,-11.76829268292683,-6.4248046875,0.0380859375,-0.3779296875
1033,3.119,IMU1,-422.8658536585366,0.3658536585365854,-6.097560975609756,-6.4052734375,0.0703125,-0.3896484375
1034,3.119,IMU2,-420.4268292682927,0.426829268292683,-7.926829268292684,-6.40234375,0.1015625,-0.34375
1035,3.129,IMU0,-425.4878048780488,0.9146341463414634,-11.036585365853659,-6.3388671875,-0.1455078125,-0.3701171875
1036,3.129,IMU1,-426.95121951219517,1.6463414634146343,-5.487804878048781,-6.3125,-0.125,-0.3876953125
1037,3.129,IMU2,-424.39024390243907,1.402439024390244,-7.25609756097561,-6.3134765625,-0.08984375,-0.353515625
1038,3.139,IMU0,-422.9878048780488,-0.12195121951219513,-12.682926829268293,-6.236328125,-0.22265625,-0.330078125
1039,3.139,IMU1,-424.39024390243907,0.24390243902439027,-7.25609756097561,-6.2236328125,-0.18359375,-0.349609375
1040,3.139,IMU2,-421.82926829268297,0.1829268292682927,-8.963414634146343,-6.2255859375,-0.1533203125,-0.3173828125
1041,3.149,IMU0,-421.6463414634147,0.1829268292682927,-13.719512195121952,-6.189453125,-0.1025390625,-0.345703125
1042,3.149,IMU1,-423.4756097560976,0.7317073170731708,-8.109756097560977,-6.171875,-0.064453125,-0.375
1043,3.149,IMU2,-421.0975609756098,0.7317073170731708,-9.878048780487806,-6.1708984375,-0.0341796875,-0.3330078125
1044,3.159,IMU0,-426.0975609756098,-0.6707317073170732,-14.085365853658537,-6.0947265625,-0.1201171875,-0.369140625
1045,3.159,IMU1,-427.86585365853665,-0.24390243902439027,-8.475609756097562,-6.0771484375,-0.0869140625,-0.3857421875
1046,3.159,IMU2,-425.4268292682927,-0.24390243902439027,-10.24390243902439,-6.0751953125,-0.0546875,-0.3505859375
1047,3.169,IMU0,-424.32926829268297,0.48780487804878053,-14.329268292682928,-6.02734375,-0.111328125,-0.376953125
1048,3.169,IMU1,-425.7926829268293,1.0365853658536586,-8.78048780487805,-6.00390625,-0.0732421875,-0.400390625
1049,3.169,IMU2,-423.3536585365854,0.9756097560975611,-10.609756097560977,-6.0029296875,-0.0419921875,-0.3662109375
1050,3.179,IMU0,-425.4268292682927,-0.30487804878048785,-14.02439024390244,-5.919921875,-0.0107421875,-0.341796875
1051,3.179,IMU1,-427.07317073170736,0.1829268292682927,-8.231707317073171,-5.900390625,0.02734375,-0.3642578125
1052,3.179,IMU2,-424.57317073170736,0.0,-10.060975609756099,-5.896484375,0.0576171875,-0.326171875
1053,3.189,IMU0,-426.70731707317077,0.3658536585365854,-12.80487804878049,-5.8291015625,-0.0009765625,-0.328125
1054,3.189,IMU1,-428.109756097561,0.9146341463414634,-7.01219512195122,-5.810546875,0.0380859375,-0.3505859375
1055,3.189,IMU2,-425.6707317073171,0.6707317073170732,-8.902439024390244,-5.806640625,0.0693359375,-0.3154296875
1056,3.199,IMU0,-427.9878048780488,-0.30487804878048785,-11.707317073170733,-5.8046875,-0.0546875,-0.3125
1057,3.199,IMU1,-429.51219512195127,0.24390243902439027,-5.914634146341464,-5.7890625,-0.01953125,-0.333984375
1058,3.199,IMU2,-426.95121951219517,0.12195121951219513,-7.8048780487804885,-5.7861328125,0.01171875,-0.2958984375
1059,3.209,IMU0,-428.5975609756098,-3.048780487804878,-11.158536585365855,-5.7783203125,-0.0927734375,-0.3310546875
1060,3.209,IMU1,-429.93902439024396,-2.682926829268293,-5.426829268292684,-5.7666015625,-0.064453125,-0.34375
1061,3.209,IMU2,-427.50000000000006,-2.9268292682926833,-7.317073170731708,-5.7646484375,-0.03125,-0.3134765625
1062,3.219,IMU0,-428.5365853658537,-4.75609756097561,-11.28048780487805,-5.75,-0.1494140625,-0.388671875
1063,3.219,IMU1,-430.06097560975616,-4.329268292682928,-5.487804878048781,-5.736328125,-0.119140625,-0.4130859375
1064,3.219,IMU2,-427.62195121951225,-4.451219512195122,-7.500000000000001,-5.7333984375,-0.0849609375,-0.37890625
1065,3.229,IMU0,-429.32926829268297,-5.2439024390243905,-12.317073170731708,-5.7138671875,-0.1962890625,-0.4755859375
1066,3.229,IMU1,-430.8536585365854,-4.51219512195122,-6.585365853658537,-5.7060546875,-0.162109375,-0.4873046875
1067,3.229,IMU2,-428.109756097561,-4.695121951219512,-8.536585365853659,-5.70703125,-0.1259765625,-0.45703125
1068,3.239,IMU0,-428.2926829268293,-1.1585365853658538,-13.29268292682927,-5.736328125,-0.1513671875,-0.5068359375
1069,3.239,IMU1,-429.81707317073176,-0.30487804878048785,-7.560975609756098,-5.728515625,-0.1123046875,-0.5458984375
1070,3.239,IMU2,-427.19512195121956,-0.24390243902439027,-9.51219512195122,-5.728515625,-0.0771484375,-0.5087890625
1071,3.249,IMU0,-428.9634146341464,2.439024390243903,-14.085365853658537,-5.7109375,-0.072265625,-0.4375
1072,3.249,IMU1,-430.4878048780488,3.1097560975609757,-8.292682926829269,-5.7001953125,-0.033203125,-0.451171875
1073,3.249,IMU2,-428.109756097561,3.1707317073170733,-10.121951219512196,-5.697265625,-0.001953125,-0.416015625
1074,3.259,IMU0,-430.00000000000006,2.1341463414634148,-13.841463414634148,-5.6923828125,-0.1005859375,-0.3740234375
1075,3.259,IMU1,-431.5853658536586,2.6219512195121952,-8.109756097560977,-5.6806640625,-0.0654296875,-0.37890625
1076,3.259,IMU2,-428.9634146341464,2.5609756097560976,-9.939024390243903,-5.6806640625,-0.033203125,-0.3466796875
1077,3.269,IMU0,-429.1463414634147,0.30487804878048785,-13.78048780487805,-5.66796875,-0.064453125,-0.328125
1078,3.269,IMU1,-430.4268292682927,0.7926829268292683,-8.109756097560977,-5.6591796875,-0.0205078125,-0.3642578125
1079,3.269,IMU2,-428.0487804878049,0.7926829268292683,-9.939024390243903,-5.66015625,0.015625,-0.3359375
1080,3.279,IMU0,-428.9024390243903,-1.524390243902439,-12.926829268292684,-5.6298828125,-0.001953125,-0.33203125
1081,3.279,IMU1,-430.7317073170732,-0.9146341463414634,-7.195121951219513,-5.619140625,0.037109375,-0.3447265625
