,ts,id,Gx,Gy,Gz,Ax,Ay,Az
0,-0.331,IMU0,6.707317073170732,0.9756097560975611,-5.3048780487804885,0.0439453125,-0.9970703125,-0.14453125
1,-0.331,IMU1,0.5487804878048781,0.7317073170731708,0.0,0.0048828125,-0.9912109375,-0.0068359375
2,-0.321,IMU0,6.707317073170732,0.9756097560975611,-5.426829268292684,0.0341796875,-1.00390625,-0.1484375
3,-0.321,IMU1,0.5487804878048781,0.7926829268292683,0.0,0.0068359375,-0.9921875,-0.005859375
4,-0.311,IMU0,7.01219512195122,0.853658536585366,-5.731707317073171,0.01953125,-1.0234375,-0.130859375
5,-0.311,IMU1,0.6097560975609757,0.7317073170731708,0.06097560975609757,0.0029296875,-0.9990234375,-0.0009765625
6,-0.301,IMU0,6.7682926829268295,0.9146341463414634,-5.0,0.021484375,-1.03125,-0.1533203125
7,-0.301,IMU1,0.9146341463414634,0.853658536585366,0.06097560975609757,0.005859375,-1.0078125,-0.0078125
8,-0.291,IMU0,6.2804878048780495,0.9146341463414634,-4.695121951219512,0.0185546875,-1.0126953125,-0.150390625
9,-0.291,IMU1,0.48780487804878053,0.9146341463414634,0.06097560975609757,0.0078125,-1.0068359375,-0.005859375
10,-0.281,IMU0,6.707317073170732,1.0365853658536586,-4.939024390243903,0.04296875,-1.0126953125,-0.140625
11,-0.281,IMU1,0.24390243902439027,0.7317073170731708,0.06097560975609757,0.0048828125,-1.0107421875,-0.0009765625
12,-0.271,IMU0,6.707317073170732,1.0365853658536586,-4.75609756097561,0.0390625,-1.0166015625,-0.1435546875
13,-0.271,IMU1,0.6707317073170732,0.7317073170731708,0.0,0.0068359375,-1.0029296875,-0.005859375
14,-0.261,IMU0,6.52439024390244,0.853658536585366,-5.182926829268293,0.03515625,-1.0009765625,-0.1416015625
15,-0.261,IMU1,0.5487804878048781,0.6097560975609757,0.0,0.009765625,-0.99609375,-0.005859375
16,-0.251,IMU0,6.341463414634147,0.6097560975609757,-5.060975609756098,0.0322265625,-0.984375,-0.158203125
17,-0.251,IMU1,0.6097560975609757,0.5487804878048781,0.0,0.0068359375,-0.9912109375,-0.001953125
18,-0.241,IMU0,6.646341463414635,0.7317073170731708,-5.2439024390243905,0.029296875,-1.0029296875,-0.1572265625
19,-0.241,IMU1,0.5487804878048781,0.6707317073170732,0.0,0.0048828125,-0.994140625,-0.0068359375
20,-0.231,IMU0,6.036585365853659,0.6097560975609757,-5.060975609756098,0.0263671875,-0.9921875,-0.1337890625
21,-0.231,IMU1,0.426829268292683,0.7317073170731708,0.06097560975609757,0.0048828125,-0.9931640625,-0.0048828125
22,-0.221,IMU0,6.585365853658537,0.7317073170731708,-5.3048780487804885,0.0380859375,-1.0126953125,-0.1337890625
23,-0.221,IMU1,0.6097560975609757,0.6707317073170732,0.06097560975609757,0.0068359375,-1.0048828125,0.0
24,-0.211,IMU0,6.463414634146342,0.7317073170731708,-5.365853658536586,0.037109375,-1.0048828125,-0.15625
25,-0.211,IMU1,0.6097560975609757,0.6707317073170732,0.0,0.0078125,-1.005859375,-0.0068359375
26,-0.201,IMU0,6.341463414634147,0.7317073170731708,-5.487804878048781,0.0322265625,-1.0146484375,-0.162109375
27,-0.201,IMU1,0.5487804878048781,0.6707317073170732,-0.06097560975609757,0.0048828125,-1.0107421875,-0.0048828125
28,-0.191,IMU0,6.463414634146342,0.853658536585366,-5.548780487804878,0.03515625,-1.0205078125,-0.1572265625
29,-0.191,IMU1,0.7317073170731708,0.6707317073170732,-0.06097560975609757,0.005859375,-1.0087890625,-0.0087890625
30,-0.181,IMU0,6.097560975609756,1.0365853658536586,-5.670731707317073,0.0302734375,-1.0078125,-0.138671875
31,-0.181,IMU1,0.6097560975609757,0.7317073170731708,-0.06097560975609757,0.005859375,-1.001953125,-0.009765625
32,-0.171,IMU0,5.182926829268293,0.853658536585366,-5.182926829268293,0.0458984375,-1.0166015625,-0.1474609375
33,-0.171,IMU1,0.7317073170731708,0.853658536585366,-0.06097560975609757,0.0087890625,-1.0048828125,-0.00390625
34,-0.161,IMU0,6.463414634146342,1.0975609756097562,-5.487804878048781,0.037109375,-1.00390625,-0.1533203125
35,-0.161,IMU1,0.48780487804878053,0.7317073170731708,0.0,0.0078125,-0.9921875,0.00390625
36,-0.151,IMU0,6.463414634146342,0.7926829268292683,-5.7926829268292686,0.0302734375,-1.005859375,-0.1455078125
37,-0.151,IMU1,0.12195121951219513,0.5487804878048781,0.06097560975609757,0.0087890625,-1.00390625,-0.01171875
38,-0.141,IMU0,6.951219512195123,0.7926829268292683,-5.731707317073171,0.0263671875,-0.9833984375,-0.1484375
39,-0.141,IMU1,0.24390243902439027,0.48780487804878053,0.06097560975609757,0.01171875,-0.98828125,-0.0146484375
40,-0.131,IMU0,6.890243902439025,0.426829268292683,-5.609756097560976,0.017578125,-1.001953125,-0.12890625
41,-0.131,IMU1,0.6097560975609757,0.426829268292683,0.06097560975609757,0.0048828125,-1.005859375,-0.015625
42,-0.121,IMU0,6.646341463414635,0.48780487804878053,-5.548780487804878,0.017578125,-1.0458984375,-0.1171875
43,-0.121,IMU1,0.6097560975609757,0.30487804878048785,0.06097560975609757,0.009765625,-1.0546875,-0.015625
44,-0.111,IMU0,6.158536585365854,0.0,-5.182926829268293,0.052734375,-1.4462890625,-0.1103515625
45,-0.111,IMU1,0.24390243902439027,0.0,0.06097560975609757,0.0419921875,-1.4462890625,0.00390625
46,-0.101,IMU0,5.2439024390243905,1.2195121951219514,-4.817073170731708,0.015625,-3.025390625,-0.1015625
47,-0.101,IMU1,-0.1829268292682927,0.7926829268292683,0.12195121951219513,-0.0126953125,-3.0693359375,-0.0146484375
48,-0.091,IMU0,5.670731707317073,-1.2804878048780488,-4.817073170731708,0.0673828125,-5.205078125,-0.1630859375
49,-0.091,IMU1,0.0,-1.524390243902439,0.30487804878048785,0.046875,-5.2578125,-0.1318359375
50,-0.081,IMU0,5.365853658536586,-3.231707317073171,-5.548780487804878,-0.005859375,-7.3076171875,0.03125
51,-0.081,IMU1,-1.6463414634146343,-3.2926829268292686,-0.06097560975609757,-0.052734375,-7.31640625,-0.0068359375
52,-0.071,IMU0,6.2804878048780495,-5.731707317073171,-5.365853658536586,0.1025390625,-8.658203125,-0.0830078125
53,-0.071,IMU1,0.06097560975609757,-5.487804878048781,0.06097560975609757,0.078125,-8.619140625,-0.1533203125
54,-0.061,IMU0,7.926829268292684,-7.195121951219513,-5.7926829268292686,0.0205078125,-9.318359375,0.013671875
55,-0.061,IMU1,1.0365853658536586,-6.402439024390245,0.0,-0.0302734375,-9.2705078125,-0.1005859375
56,-0.051,IMU0,4.024390243902439,-7.134146341463415,-5.365853658536586,0.0888671875,-9.548828125,0.02734375
57,-0.051,IMU1,-3.2926829268292686,-6.951219512195123,0.24390243902439027,0.0478515625,-9.466796875,-0.3349609375
58,-0.041,IMU0,5.975609756097562,-8.292682926829269,-5.060975609756098,0.09375,-9.720703125,-0.1279296875
59,-0.041,IMU1,-0.24390243902439027,-8.353658536585366,0.426829268292683,0.041015625,-9.6640625,-0.166015625
60,-0.031,IMU0,7.378048780487806,-12.74390243902439,-5.121951219512195,0.1083984375,-9.935546875,-0.1884765625
61,-0.031,IMU1,1.6463414634146343,-12.74390243902439,0.30487804878048785,0.076171875,-9.8828125,-0.3369140625
62,-0.021,IMU0,5.7926829268292686,-18.414634146341466,-5.2439024390243905,0.0859375,-10.0439453125,0.009765625
63,-0.021,IMU1,0.30487804878048785,-18.231707317073173,-0.06097560975609757,0.0,-10.0068359375,-0.1669921875
64,-0.011,IMU0,8.231707317073171,-22.682926829268293,-5.3048780487804885,0.1123046875,-10.0546875,-0.083984375
65,-0.011,IMU1,3.048780487804878,-22.743902439024392,-0.5487804878048781,0.013671875,-10.0126953125,-0.2080078125
66,-0.001,IMU0,7.621951219512196,-24.75609756097561,-6.097560975609756,0.0771484375,-10.056640625,-0.1318359375
67,-0.001,IMU1,1.1585365853658538,-25.243902439024392,-0.7926829268292683,0.013671875,-9.9892578125,-0.328125
68,0.009,IMU0,7.134146341463415,-27.621951219512198,-6.097560975609756,0.0673828125,-10.041015625,-0.064453125
69,0.009,IMU1,0.06097560975609757,-27.25609756097561,-0.7926829268292683,-0.001953125,-10.0322265625,-0.125
70,0.019,IMU0,8.536585365853659,-27.134146341463417,-6.036585365853659,0.0869140625,-10.0498046875,-0.1494140625
71,0.019,IMU1,1.2195121951219514,-26.89024390243903,-0.7317073170731708,0.025390625,-9.9970703125,-0.2529296875
72,0.029,IMU0,7.682926829268293,-27.073170731707318,-5.670731707317073,0.0791015625,-10.0458984375,-0.0400390625
73,0.029,IMU1,1.0365853658536586,-26.58536585365854,-0.6097560975609757,0.0263671875,-9.98046875,-0.208984375
74,0.039,IMU0,7.01219512195122,-27.743902439024392,-5.548780487804878,0.0625,-10.0048828125,-0.08984375
75,0.039,IMU1,1.0975609756097562,-26.463414634146343,-0.5487804878048781,0.0166015625,-9.9541015625,-0.20703125
76,0.049,IMU0,7.01219512195122,-27.195121951219516,-5.975609756097562,0.099609375,-9.9609375,0.0107421875
77,0.049,IMU1,1.2195121951219514,-26.158536585365855,-0.24390243902439027,0.0634765625,-9.9111328125,-0.0771484375
78,0.059,IMU0,7.987804878048781,-29.573170731707318,-5.3048780487804885,0.1220703125,-9.869140625,0.0966796875
79,0.059,IMU1,1.7682926829268295,-29.26829268292683,-0.06097560975609757,0.0615234375,-9.83984375,0.0087890625
80,0.069,IMU0,9.02439024390244,-30.426829268292686,-5.2439024390243905,0.0927734375,-9.8203125,-0.0029296875
81,0.069,IMU1,2.5,-29.75609756097561,0.24390243902439027,0.04296875,-9.7685546875,-0.076171875
82,0.079,IMU0,9.085365853658537,-28.414634146341466,-4.329268292682928,0.0986328125,-9.7880859375,0.0087890625
83,0.079,IMU1,2.682926829268293,-27.500000000000004,1.2195121951219514,0.0712890625,-9.71875,-0.220703125
84,0.089,IMU0,7.865853658536586,-25.853658536585368,-4.329268292682928,0.16796875,-9.7998046875,-0.111328125
85,0.089,IMU1,1.4634146341463417,-25.853658536585368,1.0365853658536586,0.11328125,-9.71875,-0.1748046875
86,0.099,IMU0,2.987804878048781,-24.695121951219516,-4.329268292682928,0.14453125,-9.75390625,-0.1748046875
87,0.099,IMU1,-3.353658536585366,-24.81707317073171,1.1585365853658538,0.0810546875,-9.6669921875,-0.2705078125
88,0.109,IMU0,8.719512195121952,-23.353658536585368,-3.963414634146342,0.1826171875,-9.6884765625,-0.1376953125
89,0.109,IMU1,2.5,-23.53658536585366,1.9512195121951221,0.1142578125,-9.5966796875,-0.36328125
90,0.119,IMU0,13.170731707317074,-22.378048780487806,-3.2926829268292686,0.2001953125,-9.7177734375,-0.4853515625
91,0.119,IMU1,6.036585365853659,-22.25609756097561,2.378048780487805,0.1376953125,-9.6376953125,-0.583984375
92,0.129,IMU0,5.2439024390243905,-22.073170731707318,-2.378048780487805,0.173828125,-9.6669921875,-0.3876953125
93,0.129,IMU1,-1.4634146341463417,-22.31707317073171,2.804878048780488,0.11328125,-9.58984375,-0.5166015625
94,0.139,IMU0,11.76829268292683,-21.219512195121954,-1.9512195121951221,0.12890625,-9.58203125,-0.31640625
95,0.139,IMU1,6.646341463414635,-20.975609756097562,3.048780487804878,0.068359375,-9.546875,-0.419921875
96,0.149,IMU0,15.79268292682927,-20.243902439024392,-1.707317073170732,0.140625,-9.6904296875,-0.431640625
97,0.149,IMU1,9.451219512195122,-20.182926829268293,3.231707317073171,0.091796875,-9.6435546875,-0.5224609375
98,0.159,IMU0,8.658536585365855,-22.378048780487806,-1.8902439024390245,0.1279296875,-9.6953125,-0.1611328125
99,0.159,IMU1,2.5,-22.80487804878049,3.231707317073171,0.044921875,-9.66015625,-0.2197265625
100,0.169,IMU0,6.097560975609756,-27.987804878048784,-2.7439024390243905,0.0009765625,-9.7041015625,0.7138671875
101,0.169,IMU1,1.0975609756097562,-28.170731707317074,2.1341463414634148,-0.0478515625,-9.6923828125,0.4716796875
102,0.179,IMU0,12.80487804878049,-31.402439024390247,-5.121951219512195,-0.0234375,-9.6845703125,0.45703125
103,0.179,IMU1,7.926829268292684,-31.82926829268293,0.12195121951219513,-0.08984375,-9.6552734375,0.35546875
104,0.189,IMU0,4.878048780487806,-32.5609756097561,-5.487804878048781,0.0009765625,-9.720703125,0.130859375
105,0.189,IMU1,-1.9512195121951221,-32.80487804878049,-0.7926829268292683,-0.060546875,-9.65625,-0.01171875
106,0.199,IMU0,4.024390243902439,-32.19512195121951,-6.402439024390245,0.0380859375,-9.6826171875,0.1689453125
107,0.199,IMU1,-2.0121951219512195,-32.31707317073171,-1.402439024390244,-0.009765625,-9.6142578125,0.041015625
108,0.209,IMU0,6.951219512195123,-29.26829268292683,-6.890243902439025,-0.080078125,-9.6650390625,0.0087890625
109,0.209,IMU1,-0.6707317073170732,-29.08536585365854,-1.829268292682927,-0.134765625,-9.61328125,0.0244140625
110,0.219,IMU0,0.7317073170731708,-22.500000000000004,-6.707317073170732,-0.01171875,-9.697265625,-0.0458984375
111,0.219,IMU1,-5.548780487804878,-21.951219512195124,-1.5853658536585367,-0.03125,-9.6220703125,-0.1875
112,0.229,IMU0,9.085365853658537,-19.512195121951223,-7.682926829268293,0.0576171875,-9.6884765625,-0.2412109375
113,0.229,IMU1,2.6219512195121952,-19.085365853658537,-2.073170731707317,0.0107421875,-9.642578125,-0.3583984375
114,0.239,IMU0,6.402439024390245,-17.5609756097561,-6.890243902439025,0.0439453125,-9.759765625,-0.2509765625
115,0.239,IMU1,-0.7317073170731708,-17.134146341463417,-1.707317073170732,-0.0009765625,-9.6962890625,-0.3603515625
116,0.249,IMU0,5.2439024390243905,-17.31707317073171,-5.731707317073171,0.134765625,-9.7060546875,-0.2470703125
117,0.249,IMU1,-0.12195121951219513,-17.134146341463417,-1.0365853658536586,0.0576171875,-9.6416015625,-0.337890625
118,0.259,IMU0,15.975609756097562,-19.02439024390244,-6.097560975609756,0.1552734375,-9.7275390625,-0.4697265625
119,0.259,IMU1,9.51219512195122,-18.414634146341466,-1.1585365853658538,0.103515625,-9.65625,-0.62109375
120,0.269,IMU0,6.097560975609756,-13.963414634146343,-6.097560975609756,0.2236328125,-9.7626953125,-0.3251953125
121,0.269,IMU1,-0.9756097560975611,-13.78048780487805,-0.9756097560975611,0.185546875,-9.6904296875,-0.3525390625
122,0.279,IMU0,6.097560975609756,-15.54878048780488,-4.939024390243903,0.2392578125,-9.751953125,0.0078125
123,0.279,IMU1,1.8902439024390245,-16.03658536585366,-0.30487804878048785,0.1220703125,-9.6728515625,-0.1201171875
124,0.289,IMU0,18.10975609756098,-19.634146341463417,-3.8414634146341466,0.2783203125,-9.8427734375,-0.0849609375
125,0.289,IMU1,12.500000000000002,-20.182926829268293,1.0365853658536586,0.1875,-9.7744140625,-0.2080078125
126,0.299,IMU0,7.865853658536586,-21.82926829268293,-2.439024390243903,0.291015625,-9.8935546875,-0.0986328125
127,0.299,IMU1,1.2804878048780488,-22.134146341463417,2.682926829268293,0.189453125,-9.830078125,-0.162109375
128,0.309,IMU0,1.402439024390244,-23.963414634146343,-2.804878048780488,0.2255859375,-9.8037109375,0.40625
129,0.309,IMU1,-4.451219512195122,-24.146341463414636,2.5,0.109375,-9.77734375,0.3818359375
130,0.319,IMU0,9.573170731707318,-24.81707317073171,-2.1341463414634148,-0.00390625,-9.845703125,0.33984375
131,0.319,IMU1,4.573170731707317,-24.695121951219516,3.1097560975609757,-0.087890625,-9.814453125,0.216796875
132,0.329,IMU0,8.902439024390244,-23.170731707317074,-0.30487804878048785,-0.0703125,-9.9658203125,0.0859375
133,0.329,IMU1,1.9512195121951221,-23.04878048780488,5.060975609756098,-0.140625,-9.9287109375,-0.0302734375
134,0.339,IMU0,8.902439024390244,-23.170731707317074,-0.30487804878048785,-0.0703125,-9.9658203125,0.0859375
135,0.339,IMU1,-4.51219512195122,-20.121951219512198,5.426829268292684,-0.30859375,-9.875,-0.0751953125
136,0.349,IMU0,5.609756097560976,-18.29268292682927,-0.9146341463414634,-0.345703125,-9.869140625,0.0673828125
137,0.349,IMU1,0.426829268292683,-18.597560975609756,3.9024390243902443,-0.3798828125,-9.8134765625,-0.0576171875
138,0.359,IMU0,6.036585365853659,-12.74390243902439,-5.2439024390243905,-0.3447265625,-9.85546875,-0.34375
139,0.359,IMU1,-0.9756097560975611,-11.707317073170733,-0.30487804878048785,-0.318359375,-9.7802734375,-0.419921875
140,0.369,IMU0,1.0975609756097562,-7.25609756097561,-10.548780487804878,-0.21484375,-9.814453125,-0.2470703125
141,0.369,IMU1,-4.75609756097561,-6.951219512195123,-5.7926829268292686,-0.228515625,-9.7275390625,-0.3935546875
142,0.379,IMU0,9.756097560975611,-3.536585365853659,-13.170731707317074,-0.3330078125,-9.720703125,-0.2958984375
143,0.379,IMU1,5.2439024390243905,-2.804878048780488,-8.048780487804878,-0.40234375,-9.63671875,-0.5244140625
144,0.389,IMU0,11.097560975609756,8.292682926829269,-11.76829268292683,-0.2919921875,-9.853515625,-0.6474609375
145,0.389,IMU1,5.182926829268293,8.963414634146343,-5.975609756097562,-0.3427734375,-9.7724609375,-0.7080078125
146,0.399,IMU0,1.6463414634146343,17.682926829268293,-9.26829268292683,-0.185546875,-9.8955078125,-0.2880859375
147,0.399,IMU1,-4.329268292682928,18.353658536585368,-3.536585365853659,-0.216796875,-9.822265625,-0.37890625
148,0.409,IMU0,15.54878048780488,28.231707317073173,-10.121951219512196,-0.0283203125,-9.9208984375,0.078125
149,0.409,IMU1,11.951219512195124,29.26829268292683,-4.51219512195122,-0.0908203125,-9.87890625,-0.091796875
150,0.419,IMU0,20.365853658536587,39.024390243902445,-12.987804878048781,-0.044921875,-10.0205078125,0.0263671875
151,0.419,IMU1,14.146341463414636,39.08536585365854,-6.52439024390244,-0.1328125,-9.970703125,-0.140625
152,0.429,IMU0,6.158536585365854,44.207317073170735,-12.926829268292684,-0.0078125,-10.076171875,-0.228515625
153,0.429,IMU1,0.06097560975609757,43.90243902439025,-6.219512195121951,-0.068359375,-10.0224609375,-0.330078125
154,0.439,IMU0,1.3414634146341464,46.707317073170735,-11.829268292682928,-0.0595703125,-10.046875,0.0859375
155,0.439,IMU1,-4.695121951219512,46.09756097560976,-4.75609756097561,-0.1201171875,-10.0,-0.0517578125
156,0.449,IMU0,0.7926829268292683,47.743902439024396,-10.426829268292684,0.01953125,-10.005859375,0.1845703125
157,0.449,IMU1,-5.060975609756098,47.37804878048781,-3.5975609756097566,-0.0625,-9.9619140625,0.03125
158,0.459,IMU0,5.975609756097562,48.41463414634147,-10.487804878048781,0.056640625,-9.984375,0.3125
159,0.459,IMU1,2.0121951219512195,48.10975609756098,-4.085365853658537,-0.0234375,-9.9541015625,0.1513671875
160,0.469,IMU0,14.390243902439027,49.085365853658544,-11.52439024390244,0.072265625,-10.080078125,0.0859375
161,0.469,IMU1,10.060975609756099,48.84146341463415,-5.731707317073171,-0.015625,-10.0439453125,-0.0927734375
162,0.479,IMU0,8.109756097560977,48.59756097560976,-12.682926829268293,0.029296875,-10.1875,-0.1962890625
163,0.479,IMU1,2.1341463414634148,48.35365853658537,-6.158536585365854,-0.0517578125,-10.1171875,-0.302734375
164,0.489,IMU0,-1.5853658536585367,47.987804878048784,-11.402439024390246,0.021484375,-10.1396484375,-0.021484375
165,0.489,IMU1,-7.195121951219513,47.6219512195122,-5.060975609756098,-0.0712890625,-10.072265625,-0.1201171875
166,0.499,IMU0,-0.12195121951219513,48.170731707317074,-10.487804878048781,0.01171875,-10.08203125,0.2001953125
167,0.499,IMU1,-4.634146341463415,47.31707317073171,-3.963414634146342,-0.0634765625,-10.0107421875,0.091796875
168,0.509,IMU0,5.3048780487804885,47.987804878048784,-10.487804878048781,0.05859375,-10.0625,0.2666015625
169,0.509,IMU1,1.3414634146341464,47.50000000000001,-4.024390243902439,-0.013671875,-9.99609375,0.1025390625
170,0.519,IMU0,11.76829268292683,47.987804878048784,-11.707317073170733,0.0771484375,-10.0830078125,0.1865234375
171,0.519,IMU1,7.073170731707318,47.50000000000001,-5.060975609756098,-0.001953125,-10.037109375,-0.0224609375
172,0.529,IMU0,9.51219512195122,47.5609756097561,-12.865853658536587,0.0361328125,-10.166015625,-0.03125
173,0.529,IMU1,4.390243902439025,47.07317073170732,-5.853658536585367,-0.0380859375,-10.0927734375,-0.2041015625
174,0.539,IMU0,-0.24390243902439027,46.646341463414636,-11.890243902439025,-0.0048828125,-10.15234375,-0.03515625
175,0.539,IMU1,-5.426829268292684,46.21951219512196,-5.2439024390243905,-0.0625,-10.09375,-0.150390625
176,0.549,IMU0,-0.7926829268292683,46.28048780487805,-10.914634146341465,-0.015625,-10.0869140625,0.1982421875
177,0.549,IMU1,-6.219512195121951,45.73170731707317,-4.2682926829268295,-0.072265625,-10.033203125,0.064453125
178,0.559,IMU0,7.195121951219513,46.524390243902445,-10.975609756097562,0.0390625,-10.0595703125,0.2802734375
179,0.559,IMU1,1.3414634146341464,45.85365853658537,-4.024390243902439,-0.025390625,-10.017578125,0.130859375
180,0.569,IMU0,11.158536585365855,46.40243902439025,-11.646341463414634,0.0546875,-10.1240234375,0.123046875
181,0.569,IMU1,5.426829268292684,45.85365853658537,-4.817073170731708,-0.021484375,-10.0634765625,-0.0205078125
182,0.579,IMU0,9.451219512195122,46.09756097560976,-12.01219512195122,0.0302734375,-10.1845703125,-0.0234375
183,0.579,IMU1,4.024390243902439,45.60975609756098,-5.609756097560976,-0.0341796875,-10.1103515625,-0.15234375
184,0.589,IMU0,2.9268292682926833,45.243902439024396,-12.195121951219512,-0.00390625,-10.177734375,-0.037109375
185,0.589,IMU1,-2.9268292682926833,44.87804878048781,-5.365853658536586,-0.06640625,-10.115234375,-0.15625
186,0.599,IMU0,-0.6097560975609757,44.93902439024391,-11.219512195121952,-0.00390625,-10.12109375,0.150390625
187,0.599,IMU1,-6.2804878048780495,44.32926829268293,-4.51219512195122,-0.0771484375,-10.06640625,0.0078125
188,0.609,IMU0,5.3048780487804885,44.57317073170732,-10.487804878048781,0.0322265625,-10.080078125,0.2802734375
189,0.609,IMU1,-0.30487804878048785,44.32926829268293,-3.963414634146342,-0.0419921875,-10.0380859375,0.142578125
190,0.619,IMU0,11.036585365853659,44.81707317073171,-11.097560975609756,0.0322265625,-10.1181640625,0.134765625
191,0.619,IMU1,5.365853658536586,44.390243902439025,-4.329268292682928,-0.0322265625,-10.0810546875,0.0
192,0.629,IMU0,9.634146341463415,44.51219512195122,-11.951219512195124,0.044921875,-10.1826171875,-0.0673828125
193,0.629,IMU1,3.4756097560975614,44.08536585365854,-4.939024390243903,-0.0390625,-10.12109375,-0.171875
194,0.639,IMU0,4.024390243902439,43.65853658536586,-11.707317073170733,0.01171875,-10.18359375,-0.068359375
195,0.639,IMU1,-1.829268292682927,43.53658536585366,-5.0,-0.076171875,-10.126953125,-0.1767578125
196,0.649,IMU0,1.0365853658536586,43.41463414634147,-11.036585365853659,0.0009765625,-10.1318359375,0.0791015625
197,0.649,IMU1,-5.060975609756098,43.04878048780488,-4.2682926829268295,-0.083984375,-10.0849609375,-0.0478515625
198,0.659,IMU0,4.2682926829268295,43.53658536585366,-10.30487804878049,0.0224609375,-10.1083984375,0.2099609375
199,0.659,IMU1,-1.707317073170732,42.86585365853659,-3.658536585365854,-0.0615234375,-10.056640625,0.076171875
200,0.669,IMU0,10.975609756097562,43.29268292682927,-10.426829268292684,0.029296875,-10.130859375,0.1591796875
201,0.669,IMU1,4.878048780487806,42.86585365853659,-3.8414634146341466,-0.044921875,-10.078125,0.029296875
202,0.679,IMU0,10.365853658536587,42.926829268292686,-10.975609756097562,0.0146484375,-10.1845703125,-0.0361328125
203,0.679,IMU1,4.573170731707317,42.743902439024396,-4.390243902439025,-0.0458984375,-10.12890625,-0.16015625
204,0.689,IMU0,5.060975609756098,42.6829268292683,-11.28048780487805,0.0009765625,-10.18359375,-0.060546875
205,0.689,IMU1,-0.853658536585366,42.19512195121951,-4.573170731707317,-0.0693359375,-10.1298828125,-0.1650390625
206,0.699,IMU0,2.3170731707317076,42.07317073170732,-10.853658536585368,-0.013671875,-10.1484375,0.076171875
207,0.699,IMU1,-3.536585365853659,41.707317073170735,-3.963414634146342,-0.0869140625,-10.1025390625,-0.0537109375
208,0.709,IMU0,3.780487804878049,42.07317073170732,-10.121951219512196,-0.0068359375,-10.1337890625,0.169921875
209,0.709,IMU1,-1.4634146341463417,41.463414634146346,-3.231707317073171,-0.0830078125,-10.08203125,0.0419921875
210,0.719,IMU0,9.329268292682928,41.890243902439025,-9.756097560975611,0.0224609375,-10.16015625,0.1533203125
211,0.719,IMU1,3.780487804878049,41.40243902439025,-3.1097560975609757,-0.0615234375,-10.103515625,0.0419921875
212,0.729,IMU0,10.731707317073171,41.646341463414636,-10.182926829268293,0.0283203125,-10.2138671875,0.0126953125
213,0.729,IMU1,5.182926829268293,41.21951219512196,-3.5975609756097566,-0.0517578125,-10.1533203125,-0.1201171875
214,0.739,IMU0,6.402439024390245,41.707317073170735,-10.30487804878049,0.02734375,-10.09375,-0.1142578125
215,0.739,IMU1,0.24390243902439027,41.15853658536586,-3.9024390243902443,-0.0654296875,-10.0068359375,-0.2021484375
216,0.749,IMU0,2.7439024390243905,40.0609756097561,-9.817073170731708,-0.01953125,-9.7578125,0.046875
217,0.749,IMU1,-2.987804878048781,40.1829268292683,-3.353658536585366,-0.0625,-9.6884765625,-0.0615234375
218,0.759,IMU0,5.3048780487804885,39.75609756097561,-9.02439024390244,-0.01171875,-9.2822265625,0.2294921875
219,0.759,IMU1,-0.5487804878048781,40.1219512195122,-2.5609756097560976,-0.0888671875,-9.220703125,0.1298828125
220,0.769,IMU0,7.621951219512196,39.57317073170732,-8.414634146341465,-0.00390625,-8.689453125,0.126953125
221,0.769,IMU1,2.6219512195121952,39.75609756097561,-2.073170731707317,-0.0341796875,-8.630859375,0.0244140625
222,0.779,IMU0,11.158536585365855,39.93902439024391,-8.78048780487805,-0.0068359375,-8.1572265625,0.029296875
223,0.779,IMU1,5.2439024390243905,40.73170731707317,-2.5,-0.0546875,-8.107421875,-0.0625
224,0.789,IMU0,7.743902439024391,39.146341463414636,-9.695121951219512,-0.0283203125,-7.8310546875,-0.1474609375
225,0.789,IMU1,1.7682926829268295,40.1219512195122,-2.8658536585365857,-0.0732421875,-7.7763671875,-0.1689453125
226,0.799,IMU0,2.25609756097561,38.963414634146346,-9.02439024390244,0.017578125,-7.4970703125,-0.009765625
227,0.799,IMU1,-3.658536585365854,39.81707317073171,-2.25609756097561,-0.0341796875,-7.4482421875,-0.0166015625
228,0.809,IMU0,5.0,39.32926829268293,-8.170731707317074,-0.0234375,-7.220703125,0.1455078125
229,0.809,IMU1,-1.0975609756097562,41.03658536585366,-1.5853658536585367,-0.078125,-7.1689453125,0.1337890625
230,0.819,IMU0,7.500000000000001,39.69512195121951,-7.743902439024391,-0.0185546875,-7.06640625,0.091796875
231,0.819,IMU1,1.829268292682927,40.426829268292686,-0.9756097560975611,-0.072265625,-7.017578125,0.05859375
232,0.829,IMU0,9.02439024390244,39.75609756097561,-8.292682926829269,0.0078125,-6.9052734375,0.08203125
233,0.829,IMU1,3.2926829268292686,39.63414634146342,-1.1585365853658538,-0.0390625,-6.857421875,0.01953125
234,0.839,IMU0,8.353658536585366,38.59756097560976,-8.536585365853659,-0.025390625,-6.76953125,0.0234375
235,0.839,IMU1,2.378048780487805,39.024390243902445,-1.3414634146341464,-0.07421875,-6.7294921875,-0.013671875
236,0.849,IMU0,3.963414634146342,37.926829268292686,-8.597560975609756,-0.0439453125,-6.62890625,0.01171875
237,0.849,IMU1,-2.25609756097561,37.6829268292683,-1.707317073170732,-0.1005859375,-6.5927734375,-0.015625
238,0.859,IMU0,3.2926829268292686,37.5,-7.439024390243903,-0.0244140625,-6.486328125,0.1162109375
239,0.859,IMU1,-2.6219512195121952,37.80487804878049,-0.6707317073170732,-0.0595703125,-6.4677734375,0.1259765625
240,0.869,IMU0,7.01219512195122,37.6219512195122,-6.829268292682928,-0.1015625,-6.390625,0.0927734375
241,0.869,IMU1,0.6707317073170732,37.86585365853659,-0.24390243902439027,-0.1767578125,-6.373046875,0.08203125
242,0.879,IMU0,8.475609756097562,36.890243902439025,-6.7682926829268295,0.0693359375,-6.35546875,-0.0458984375
243,0.879,IMU1,2.0121951219512195,36.82926829268293,-0.1829268292682927,0.017578125,-6.3330078125,-0.0439453125
244,0.889,IMU0,7.195121951219513,36.463414634146346,-6.890243902439025,0.0234375,-6.3037109375,-0.064453125
245,0.889,IMU1,1.2195121951219514,36.03658536585366,-0.5487804878048781,-0.0068359375,-6.2841796875,-0.041015625
246,0.899,IMU0,-14.756097560975611,31.951219512195124,-6.951219512195123,-0.3564453125,-11.6181640625,2.1181640625
247,0.899,IMU1,-23.29268292682927,29.32926829268293,-1.402439024390244,-0.4033203125,-12.2763671875,2.1875
248,0.909,IMU0,0.48780487804878053,24.26829268292683,-15.975609756097562,-0.5166015625,-11.0146484375,1.66796875
249,0.909,IMU1,7.560975609756098,27.743902439024392,-6.341463414634147,-0.7646484375,-11.12109375,1.654296875
250,0.919,IMU0,-18.84146341463415,51.40243902439025,-14.939024390243905,0.0537109375,-4.93359375,1.6328125
251,0.919,IMU1,-17.25609756097561,50.79268292682927,-7.439024390243903,-0.2880859375,-5.087890625,1.666015625
252,0.929,IMU0,-5.914634146341464,44.390243902439025,-15.731707317073171,-0.37890625,-2.5263671875,0.7998046875
253,0.929,IMU1,-7.743902439024391,43.90243902439025,-7.317073170731708,-0.4521484375,-2.548828125,0.9775390625
254,0.939,IMU0,8.109756097560977,24.390243902439025,-13.902439024390246,-0.013671875,-1.4228515625,0.14453125
255,0.939,IMU1,4.51219512195122,26.09756097560976,-7.073170731707318,-0.119140625,-1.451171875,0.4677734375
256,0.949,IMU0,-6.890243902439025,48.71951219512196,-15.365853658536587,-0.0419921875,-0.7646484375,0.2587890625
257,0.949,IMU1,-9.878048780487806,46.951219512195124,-8.170731707317074,-0.1005859375,-0.755859375,0.3291015625
258,0.959,IMU0,-6.097560975609756,48.23170731707317,-15.426829268292684,-0.107421875,-0.4658203125,0.1708984375
259,0.959,IMU1,-11.707317073170733,46.82926829268293,-7.987804878048781,-0.1337890625,-0.4443359375,0.23828125
260,0.969,IMU0,5.914634146341464,34.451219512195124,-15.79268292682927,-0.00390625,-0.2890625,0.0029296875
261,0.969,IMU1,0.24390243902439027,36.463414634146346,-8.597560975609756,-0.02734375,-0.302734375,0.08984375
262,0.979,IMU0,-0.3658536585365854,44.207317073170735,-15.853658536585368,-0.0390625,-0.1025390625,0.1064453125
263,0.979,IMU1,-4.634146341463415,42.804878048780495,-9.146341463414634,-0.072265625,-0.1123046875,0.2861328125
264,0.989,IMU0,-4.695121951219512,47.01219512195122,-16.158536585365855,-0.0673828125,-0.052734375,0.021484375
265,0.989,IMU1,-10.121951219512196,45.91463414634147,-9.26829268292683,-0.076171875,-0.05859375,0.2001953125
266,0.999,IMU0,0.6097560975609757,41.646341463414636,-16.646341463414636,-0.033203125,-0.0625,-0.1640625
267,0.999,IMU1,-5.487804878048781,43.170731707317074,-10.487804878048781,-0.052734375,-0.0654296875,0.056640625
268,1.009,IMU0,1.2195121951219514,39.63414634146342,-16.463414634146343,-0.0341796875,-0.0107421875,-0.02734375
269,1.009,IMU1,-3.780487804878049,39.63414634146342,-10.365853658536587,-0.0361328125,-0.01953125,0.1025390625
270,1.019,IMU0,-1.8902439024390245,45.1829268292683,-17.98780487804878,-0.0693359375,0.0,-0.0205078125
271,1.019,IMU1,-7.743902439024391,44.32926829268293,-11.28048780487805,-0.08203125,0.0166015625,0.1806640625
272,1.029,IMU0,-1.402439024390244,44.451219512195124,-19.02439024390244,-0.060546875,-0.0224609375,-0.0927734375
273,1.029,IMU1,-7.743902439024391,44.51219512195122,-12.195121951219512,-0.0908203125,-0.0087890625,0.150390625
274,1.039,IMU0,1.1585365853658538,40.304878048780495,-19.878048780487806,-0.02734375,-0.03515625,-0.068359375
275,1.039,IMU1,-5.060975609756098,40.85365853658537,-12.621951219512196,-0.06640625,-0.029296875,0.1044921875
276,1.049,IMU0,-0.24390243902439027,43.170731707317074,-20.121951219512198,-0.076171875,-0.0146484375,0.052734375
277,1.049,IMU1,-6.341463414634147,42.86585365853659,-13.109756097560977,-0.1025390625,-0.0087890625,0.1904296875
278,1.059,IMU0,-9.51219512195122,44.51219512195122,-20.243902439024392,-0.826171875,-4.7734375,0.8701171875
279,1.059,IMU1,-19.695121951219512,43.10975609756098,-13.109756097560977,-0.560546875,-6.4111328125,1.806640625
280,1.069,IMU0,-15.609756097560977,2.9268292682926833,-26.58536585365854,2.6025390625,-15.263671875,0.794921875
281,1.069,IMU1,-21.097560975609756,7.743902439024391,-30.000000000000004,2.9765625,-14.9501953125,1.1396484375
282,1.079,IMU0,-107.25609756097562,42.6829268292683,-60.1219512195122,-1.931640625,-8.310546875,4.1611328125
283,1.079,IMU1,-108.96341463414635,46.646341463414636,-56.21951219512196,-2.1142578125,-9.958984375,4.2060546875
284,1.089,IMU0,-151.34146341463415,-2.1341463414634148,-71.95121951219512,1.1435546875,-10.4970703125,1.0029296875
285,1.089,IMU1,-161.40243902439025,0.6097560975609757,-69.45121951219512,0.8955078125,-10.7412109375,1.7578125
286,1.099,IMU0,-59.146341463414636,15.914634146341465,-88.41463414634147,0.6826171875,-9.1728515625,0.31640625
287,1.099,IMU1,-74.75609756097562,10.548780487804878,-86.28048780487805,0.412109375,-9.4140625,0.73828125
288,1.109,IMU0,-66.40243902439025,-18.963414634146343,-86.76829268292684,0.15234375,-8.2421875,-0.388671875
289,1.109,IMU1,-85.91463414634147,-18.78048780487805,-84.32926829268294,0.015625,-9.2705078125,0.1396484375
290,1.119,IMU0,-139.20731707317074,-57.07317073170732,-89.20731707317074,0.14453125,-8.767578125,-0.1201171875
291,1.119,IMU1,-154.51219512195124,-55.0609756097561,-86.76829268292684,-0.064453125,-8.97265625,0.435546875
292,1.129,IMU0,-138.47560975609758,-57.13414634146342,-90.3658536585366,0.513671875,-8.4931640625,-0.025390625
293,1.129,IMU1,-146.03658536585368,-56.03658536585366,-89.02439024390245,0.3837890625,-8.57421875,0.076171875
294,1.139,IMU0,-110.06097560975611,-65.67073170731707,-99.26829268292684,-0.0712890625,-8.302734375,0.3544921875
295,1.139,IMU1,-118.71951219512196,-62.50000000000001,-97.01219512195122,-0.11328125,-8.3818359375,0.3173828125
296,1.149,IMU0,-144.81707317073173,-81.03658536585367,-103.78048780487806,0.2265625,-8.23828125,0.00390625
297,1.149,IMU1,-153.71951219512195,-75.79268292682927,-101.95121951219512,0.0771484375,-8.2119140625,0.0009765625
298,1.159,IMU0,-191.21951219512198,-71.58536585365854,-111.21951219512196,-0.0927734375,-7.806640625,0.4150390625
299,1.159,IMU1,-195.5487804878049,-67.25609756097562,-109.87804878048782,-0.123046875,-7.826171875,0.3369140625
300,1.169,IMU0,-190.85365853658539,-65.3048780487805,-120.2439024390244,0.0390625,-7.5244140625,1.00390625
301,1.169,IMU1,-194.57317073170734,-59.81707317073171,-118.53658536585367,-0.0751953125,-7.5322265625,0.9130859375
302,1.179,IMU0,-195.2439024390244,-68.78048780487805,-131.28048780487805,0.103515625,-7.353515625,0.65625
303,1.179,IMU1,-202.19512195121953,-62.25609756097562,-130.3048780487805,0.0146484375,-7.3271484375,0.681640625
304,1.189,IMU0,-241.09756097560978,-71.70731707317074,-138.78048780487805,0.19140625,-7.12890625,1.099609375
305,1.189,IMU1,-248.47560975609758,-66.58536585365854,-137.6219512195122,0.0986328125,-7.111328125,1.0625
306,1.199,IMU0,-275.9146341463415,-59.085365853658544,-146.15853658536588,-0.001953125,-6.5634765625,1.7783203125
307,1.199,IMU1,-282.19512195121956,-52.50000000000001,-145.0,-0.1123046875,-6.5791015625,1.7060546875
308,1.209,IMU0,-292.5609756097561,-33.29268292682927,-154.20731707317074,-0.060546875,-6.3173828125,2.0849609375
309,1.209,IMU1,-301.1585365853659,-25.365853658536587,-152.25609756097563,-0.1806640625,-6.328125,2.0927734375
310,1.219,IMU0,-327.5,-11.28048780487805,-164.14634146341464,-0.337890625,-5.6787109375,2.13671875
311,1.219,IMU1,-338.1707317073171,-3.963414634146342,-162.9878048780488,-0.423828125,-5.701171875,2.2431640625
312,1.229,IMU0,-376.89024390243907,2.439024390243903,-177.5609756097561,-0.5673828125,-5.12109375,2.5146484375
313,1.229,IMU1,-387.7439024390244,10.121951219512196,-176.82926829268294,-0.708984375,-5.13671875,2.560546875
314,1.239,IMU0,-415.4878048780488,33.47560975609756,-200.5487804878049,-1.35546875,-4.0654296875,2.798828125
315,1.239,IMU1,-425.9146341463415,42.6219512195122,-199.87804878048783,-1.51171875,-4.1484375,2.8505859375
316,1.249,IMU0,-453.3536585365854,39.51219512195122,-225.4268292682927,-1.6865234375,-3.32421875,3.056640625
317,1.249,IMU1,-463.1707317073171,48.90243902439025,-225.609756097561,-1.7958984375,-3.3916015625,3.1806640625
318,1.259,IMU0,-495.06097560975616,55.304878048780495,-258.4756097560976,-3.0185546875,-1.8369140625,3.201171875
319,1.259,IMU1,-503.04878048780495,65.97560975609757,-258.8414634146342,-3.1201171875,-1.9111328125,3.3134765625
320,1.269,IMU0,-544.1463414634147,72.07317073170732,-288.6585365853659,-2.169921875,-0.2802734375,3.3330078125
321,1.269,IMU1,-549.6951219512196,83.41463414634147,-289.26829268292687,-2.2880859375,-0.3193359375,3.685546875
322,1.279,IMU0,-571.9512195121952,74.08536585365854,-318.5975609756098,-3.7197265625,1.525390625,2.9892578125
323,1.279,IMU1,-577.6829268292684,84.32926829268294,-318.3536585365854,-3.732421875,1.4833984375,3.2431640625
324,1.289,IMU0,-597.6829268292684,46.707317073170735,-345.3048780487805,-3.576171875,2.62890625,2.794921875
325,1.289,IMU1,-599.8170731707318,56.646341463414636,-345.609756097561,-3.625,2.5625,3.0615234375
326,1.299,IMU0,-624.5121951219513,19.146341463414636,-367.13414634146346,-3.60546875,3.078125,1.9521484375
327,1.299,IMU1,-625.9146341463415,30.914634146341466,-368.2317073170732,-3.669921875,3.11328125,2.19921875
328,1.309,IMU0,-636.3414634146342,-1.402439024390244,-386.76829268292687,-3.7490234375,2.2197265625,0.5732421875
329,1.309,IMU1,-640.0609756097562,12.80487804878049,-389.45121951219517,-3.82421875,2.3818359375,0.7373046875
330,1.319,IMU0,-651.7073170731708,-34.75609756097561,-403.2317073170732,-3.3837890625,0.84765625,1.529296875
331,1.319,IMU1,-653.5975609756098,-21.03658536585366,-404.1463414634147,-3.443359375,0.8935546875,1.716796875
332,1.329,IMU0,-676.2804878048781,-42.926829268292686,-407.31707317073176,-4.287109375,3.3759765625,2.6826171875
333,1.329,IMU1,-674.1463414634147,-26.03658536585366,-409.26829268292687,-4.3876953125,3.4033203125,2.8046875
334,1.339,IMU0,-651.6463414634147,-36.951219512195124,-415.6707317073171,-3.896484375,4.6796875,2.11328125
335,1.339,IMU1,-647.0731707317074,-19.390243902439025,-415.30487804878055,-3.912109375,4.7763671875,2.3076171875
336,1.349,IMU0,-626.6463414634147,-21.890243902439025,-418.5365853658537,-2.0537109375,4.982421875,1.5390625
337,1.349,IMU1,-628.4146341463415,-6.2804878048780495,-416.5853658536586,-2.0673828125,5.05859375,1.845703125
338,1.359,IMU0,-631.7682926829269,-0.5487804878048781,-408.5975609756098,-1.3662109375,5.1181640625,0.9873046875
339,1.359,IMU1,-633.3536585365854,14.51219512195122,-406.4634146341464,-1.328125,5.2041015625,1.25
340,1.369,IMU0,-603.4756097560976,18.53658536585366,-398.9634146341464,-0.484375,4.97265625,0.259765625
341,1.369,IMU1,-601.8902439024391,34.207317073170735,-396.1585365853659,-0.4287109375,5.0791015625,0.5771484375
342,1.379,IMU0,-568.5365853658537,37.987804878048784,-387.50000000000006,0.0322265625,4.4873046875,-0.267578125
343,1.379,IMU1,-567.3170731707318,51.585365853658544,-385.3658536585366,0.0810546875,4.6123046875,0.07421875
344,1.389,IMU0,-549.939024390244,51.28048780487806,-377.01219512195127,0.111328125,3.978515625,-0.15625
345,1.389,IMU1,-549.5731707317074,65.1829268292683,-373.4756097560976,0.142578125,4.0771484375,0.12890625
346,1.399,IMU0,-517.5609756097562,62.926829268292686,-368.2317073170732,0.376953125,3.7646484375,-0.3935546875
347,1.399,IMU1,-515.4878048780488,75.97560975609757,-365.4268292682927,0.388671875,3.8525390625,-0.1162109375
348,1.409,IMU0,-486.70731707317077,71.03658536585367,-361.70731707317077,0.427734375,3.4912109375,-0.5341796875
349,1.409,IMU1,-485.8536585365854,83.71951219512196,-358.2926829268293,0.4482421875,3.58203125,-0.2783203125
350,1.419,IMU0,-469.0853658536586,75.91463414634147,-353.9024390243903,0.8525390625,3.2197265625,-0.873046875
351,1.419,IMU1,-468.2317073170732,88.35365853658537,-350.00000000000006,0.8740234375,3.3037109375,-0.595703125
352,1.429,IMU0,-443.9024390243903,79.93902439024392,-344.75609756097566,0.9658203125,2.8388671875,-0.8974609375
353,1.429,IMU1,-443.2317073170732,93.17073170731707,-340.8536585365854,0.9814453125,2.916015625,-0.6259765625
354,1.439,IMU0,-416.6463414634147,82.5609756097561,-338.719512195122,0.9482421875,2.4287109375,-1.0283203125
355,1.439,IMU1,-417.37804878048786,95.1829268292683,-333.9024390243903,0.9794921875,2.509765625,-0.765625
356,1.449,IMU0,-399.75609756097566,85.42682926829269,-331.3414634146342,1.0126953125,2.0224609375,-1.1162109375
357,1.449,IMU1,-396.70731707317077,96.46341463414635,-325.609756097561,1.0302734375,2.1064453125,-0.833984375
358,1.459,IMU0,-376.4024390243903,85.0609756097561,-327.25609756097566,0.8154296875,1.8017578125,-0.87109375
359,1.459,IMU1,-374.51219512195127,94.39024390243904,-320.7317073170732,0.8671875,1.8994140625,-0.5849609375
360,1.469,IMU0,-351.89024390243907,83.78048780487805,-322.8048780487805,0.9208984375,1.703125,-0.7998046875
361,1.469,IMU1,-355.6707317073171,92.37804878048782,-316.95121951219517,0.970703125,1.7958984375,-0.515625
362,1.479,IMU0,-340.3048780487805,86.03658536585367,-318.3536585365854,0.6669921875,1.6396484375,-0.4814453125
363,1.479,IMU1,-346.2804878048781,96.09756097560977,-313.7804878048781,0.76953125,1.734375,-0.5205078125
364,1.489,IMU0,-334.45121951219517,82.7439024390244,-316.5853658536586,0.5556640625,1.728515625,-2.0556640625
365,1.489,IMU1,-336.82926829268297,96.09756097560977,-309.9390243902439,-0.015625,1.8388671875,0.2470703125
366,1.499,IMU0,-292.6219512195122,84.57317073170732,-315.1829268292683,0.498046875,1.8212890625,-3.3642578125
367,1.499,IMU1,-292.8658536585366,96.76829268292684,-310.9756097560976,-0.2744140625,1.9677734375,-1.1396484375
368,1.509,IMU0,-249.20731707317074,80.79268292682927,-317.07317073170736,0.044921875,1.4150390625,-5.36328125
369,1.509,IMU1,-250.24390243902442,94.69512195121952,-310.9146341463415,-1.48828125,1.8193359375,-3.63671875
370,1.519,IMU0,-239.87804878048783,80.42682926829269,-315.7926829268293,0.1669921875,0.806640625,-7.1728515625
371,1.519,IMU1,-243.1707317073171,93.10975609756099,-306.6463414634147,-1.1748046875,1.32421875,-4.896484375
372,1.529,IMU0,-217.9878048780488,79.14634146341464,-307.19512195121956,0.427734375,0.6865234375,-9.1435546875
373,1.529,IMU1,-207.9878048780488,92.98780487804879,-298.6585365853659,-0.1904296875,0.9208984375,-7.1748046875
374,1.539,IMU0,-182.6829268292683,81.52439024390245,-287.4390243902439,1.0966796875,0.841796875,-8.8203125
375,1.539,IMU1,-171.40243902439025,98.47560975609757,-280.0609756097561,-0.59375,0.73046875,-7.0751953125
376,1.549,IMU0,-151.34146341463415,78.65853658536587,-249.69512195121953,7.572265625,-1.337890625,-7.017578125
377,1.549,IMU1,-135.3048780487805,93.29268292682927,-242.31707317073173,6.916015625,-0.6376953125,-5.2216796875
378,1.559,IMU0,-131.21951219512195,78.53658536585367,-172.8048780487805,7.865234375,-1.6826171875,-5.830078125
379,1.559,IMU1,-117.07317073170732,85.67073170731707,-168.2317073170732,7.5703125,-1.201171875,-4.7587890625
380,1.569,IMU0,-73.23170731707317,94.57317073170732,-126.64634146341464,6.640625,-1.2900390625,-5.4150390625
381,1.569,IMU1,-58.84146341463415,95.79268292682927,-120.85365853658537,6.6025390625,-0.9404296875,-4.8134765625
382,1.579,IMU0,7.987804878048781,95.60975609756099,-92.5609756097561,5.779296875,-1.5302734375,-6.359375
383,1.579,IMU1,3.1097560975609757,96.46341463414635,-79.75609756097562,5.904296875,-1.2587890625,-5.7626953125
384,1.589,IMU0,-9.451219512195122,93.23170731707317,-59.085365853658544,6.912109375,-1.7001953125,-4.6748046875
385,1.589,IMU1,-14.390243902439027,93.65853658536587,-50.73170731707317,7.072265625,-1.49609375,-4.1298828125
386,1.599,IMU0,-5.914634146341464,102.56097560975611,-27.5609756097561,6.3115234375,-0.966796875,-4.2001953125
387,1.599,IMU1,-10.060975609756099,101.28048780487806,-18.963414634146343,6.462890625,-0.796875,-3.9404296875
388,1.609,IMU0,42.804878048780495,106.21951219512196,0.48780487804878053,6.0712890625,-0.888671875,-3.63671875
389,1.609,IMU1,25.670731707317074,104.08536585365854,5.7926829268292686,6.1455078125,-0.7568359375,-3.478515625
390,1.619,IMU0,41.707317073170735,101.76829268292684,27.621951219512198,6.634765625,-1.380859375,-3.1669921875
391,1.619,IMU1,30.30487804878049,101.21951219512196,32.07317073170732,6.69140625,-1.26171875,-2.8447265625
392,1.629,IMU0,38.65853658536586,106.76829268292684,57.01219512195122,6.12890625,-1.71875,-3.69921875
393,1.629,IMU1,35.426829268292686,102.6829268292683,64.02439024390245,6.23828125,-1.599609375,-3.193359375
394,1.639,IMU0,65.48780487804879,109.02439024390245,82.98780487804879,5.90625,-1.6279296875,-3.2939453125
395,1.639,IMU1,64.32926829268293,104.39024390243904,87.7439024390244,5.9990234375,-1.49609375,-2.8740234375
396,1.649,IMU0,92.07317073170732,109.39024390243904,105.97560975609757,5.4111328125,-1.296875,-3.2421875
397,1.649,IMU1,82.07317073170732,105.2439024390244,112.92682926829269,5.5048828125,-1.1904296875,-2.837890625
398,1.659,IMU0,90.1829268292683,111.40243902439025,128.96341463414635,5.25390625,-1.2109375,-1.8798828125
399,1.659,IMU1,76.09756097560977,104.69512195121952,136.70731707317074,5.3310546875,-1.0791015625,-1.6015625
400,1.669,IMU0,95.0609756097561,114.02439024390245,148.78048780487805,4.7841796875,-1.3154296875,-1.6240234375
401,1.669,IMU1,79.39024390243902,106.89024390243904,157.37804878048783,4.8271484375,-1.0498046875,-1.396484375
402,1.679,IMU0,97.19512195121952,116.15853658536587,170.4878048780488,4.916015625,-2.263671875,-0.8837890625
403,1.679,IMU1,84.93902439024392,108.23170731707317,179.32926829268294,4.94140625,-2.1669921875,-0.6787109375
404,1.689,IMU0,74.51219512195122,116.28048780487806,192.8048780487805,5.2255859375,-4.3642578125,0.0341796875
405,1.689,IMU1,62.50000000000001,108.71951219512196,201.09756097560978,5.3115234375,-4.3583984375,0.029296875
406,1.699,IMU0,75.42682926829269,119.93902439024392,219.51219512195124,5.259765625,-4.1748046875,0.0791015625
407,1.699,IMU1,60.243902439024396,109.45121951219514,229.57317073170734,5.30859375,-4.3720703125,0.0390625
408,1.709,IMU0,89.81707317073172,121.82926829268294,239.81707317073173,4.171875,-2.9287109375,0.2138671875
409,1.709,IMU1,77.01219512195122,111.52439024390245,249.69512195121953,4.1318359375,-3.0537109375,0.27734375
410,1.719,IMU0,75.91463414634147,123.59756097560977,254.93902439024393,3.4560546875,-2.6728515625,0.294921875
411,1.719,IMU1,66.46341463414635,112.92682926829269,264.51219512195127,3.330078125,-2.67578125,0.28515625
412,1.729,IMU0,57.865853658536594,128.71951219512195,266.4024390243903,2.89453125,-2.65234375,0.6611328125
413,1.729,IMU1,47.25609756097561,116.64634146341464,275.4878048780488,2.7802734375,-2.7314453125,0.740234375
414,1.739,IMU0,66.40243902439025,130.91463414634148,275.3658536585366,2.1416015625,-2.357421875,0.4638671875
415,1.739,IMU1,53.90243902439025,119.51219512195124,284.39024390243907,2.0849609375,-2.330078125,0.6455078125
416,1.749,IMU0,64.9390243902439,131.40243902439025,281.219512195122,1.7255859375,-2.5771484375,0.0400390625
417,1.749,IMU1,53.65853658536586,120.79268292682927,290.3048780487805,1.6064453125,-2.46875,0.2724609375
418,1.759,IMU0,39.146341463414636,137.6219512195122,285.7926829268293,2.1259765625,-5.361328125,1.4365234375
419,1.759,IMU1,30.000000000000004,128.109756097561,295.6707317073171,1.732421875,-5.2412109375,1.349609375
420,1.769,IMU0,40.73170731707317,145.0,305.0609756097561,3.3349609375,-13.552734375,0.357421875
421,1.769,IMU1,27.865853658536587,131.40243902439025,315.2439024390244,3.5224609375,-12.826171875,0.16796875
422,1.779,IMU0,42.19512195121951,147.8048780487805,317.8048780487805,1.529296875,-18.4638671875,0.3818359375
423,1.779,IMU1,30.365853658536587,137.31707317073173,328.1707317073171,1.748046875,-17.896484375,0.3037109375
424,1.789,IMU0,0.5487804878048781,150.3048780487805,331.5243902439025,-0.62890625,-22.935546875,2.0234375
425,1.789,IMU1,-13.902439024390246,135.4878048780488,344.93902439024396,-0.607421875,-22.5400390625,1.228515625
426,1.799,IMU0,-3.9024390243902443,137.8658536585366,322.9878048780488,-2.09375,-16.955078125,1.9521484375
427,1.799,IMU1,-23.78048780487805,127.62195121951221,331.76829268292687,-2.38671875,-16.9453125,1.5439453125
428,1.809,IMU0,10.121951219512196,141.34146341463415,289.1463414634147,-3.1435546875,-12.0771484375,1.62109375
429,1.809,IMU1,-6.585365853658537,127.13414634146342,304.51219512195127,-3.48828125,-12.1435546875,1.3623046875
430,1.819,IMU0,-33.963414634146346,143.2926829268293,241.89024390243904,-6.43359375,-13.6767578125,1.9345703125
431,1.819,IMU1,-41.58536585365854,134.39024390243904,251.52439024390247,-6.55078125,-13.357421875,1.7734375
432,1.829,IMU0,-90.0609756097561,145.3658536585366,168.1707317073171,-9.0849609375,-13.314453125,2.447265625
433,1.829,IMU1,-99.39024390243904,137.25609756097563,182.6829268292683,-9.490234375,-13.48046875,2.21484375
434,1.839,IMU0,-71.03658536585367,127.13414634146342,90.1219512195122,-7.3212890625,-9.708984375,1.5498046875
435,1.839,IMU1,-83.10975609756099,125.00000000000001,100.67073170731709,-7.556640625,-9.7939453125,1.337890625
436,1.849,IMU0,-71.28048780487805,111.40243902439025,21.52439024390244,-6.6630859375,-9.626953125,0.4814453125
437,1.849,IMU1,-78.29268292682927,110.67073170731709,32.19512195121951,-6.87890625,-9.474609375,0.361328125
438,1.859,IMU0,-105.42682926829269,86.70731707317074,-42.31707317073171,-7.271484375,-12.3076171875,-0.4208984375
439,1.859,IMU1,-108.71951219512196,88.29268292682927,-33.29268292682927,-7.4453125,-12.0107421875,-0.7490234375
440,1.869,IMU0,-73.71951219512195,61.463414634146346,-112.13414634146342,-8.1044921875,-15.2685546875,-2.7294921875
441,1.869,IMU1,-75.1219512195122,65.0,-106.64634146341464,-8.1962890625,-14.9365234375,-3.0419921875
442,1.879,IMU0,-17.5,34.63414634146342,-190.1219512195122,-8.7626953125,-18.0654296875,-5.2275390625
443,1.879,IMU1,-16.951219512195124,40.1219512195122,-180.97560975609758,-8.6279296875,-17.6162109375,-5.591796875
444,1.889,IMU0,-0.853658536585366,19.695121951219512,-262.9268292682927,-8.5146484375,-18.3828125,-5.6064453125
445,1.889,IMU1,1.8902439024390245,26.402439024390247,-255.91463414634148,-8.6298828125,-17.92578125,-6.046875
446,1.899,IMU0,38.71951219512196,-2.25609756097561,-326.219512195122,-5.7880859375,-18.0703125,-4.626953125
447,1.899,IMU1,40.54878048780488,8.841463414634147,-318.8414634146342,-5.98828125,-17.671875,-5.1005859375
448,1.909,IMU0,99.08536585365854,-19.878048780487806,-365.3048780487805,-1.73828125,-19.26953125,-4.79296875
449,1.909,IMU1,108.10975609756099,-10.060975609756099,-359.45121951219517,-1.8837890625,-19.0009765625,-5.31640625
450,1.919,IMU0,113.35365853658537,-40.304878048780495,-379.63414634146346,0.7578125,-19.62109375,-4.0693359375
451,1.919,IMU1,122.6829268292683,-28.902439024390247,-373.9024390243903,0.7744140625,-19.3779296875,-4.4716796875
452,1.929,IMU0,120.85365853658537,-55.73170731707317,-370.1829268292683,2.525390625,-18.708984375,-1.8134765625
453,1.929,IMU1,124.14634146341464,-45.1829268292683,-365.06097560975616,2.4169921875,-18.4169921875,-2.2861328125
454,1.939,IMU0,146.89024390243904,-74.87804878048782,-332.13414634146346,8.3505859375,-22.552734375,0.515625
455,1.939,IMU1,149.32926829268294,-64.81707317073172,-329.69512195121956,7.8525390625,-22.3623046875,0.078125
456,1.949,IMU0,151.46341463414635,-86.58536585365854,-259.8780487804878,10.517578125,-19.8125,1.251953125
457,1.949,IMU1,156.76829268292684,-77.31707317073172,-260.3048780487805,10.2275390625,-19.9296875,0.9814453125
458,1.959,IMU0,102.7439024390244,-111.15853658536587,-152.9268292682927,13.4150390625,-19.1513671875,2.552734375
459,1.959,IMU1,107.56097560975611,-104.93902439024392,-156.76829268292684,13.1845703125,-19.1416015625,2.6123046875
460,1.969,IMU0,69.39024390243902,-132.01219512195124,-40.243902439024396,13.865234375,-19.4755859375,3.4033203125
461,1.969,IMU1,62.43902439024391,-129.9390243902439,-41.768292682926834,13.6826171875,-19.7138671875,3.2724609375
462,1.979,IMU0,94.69512195121952,-127.25609756097562,74.14634146341464,11.3681640625,-16.236328125,2.861328125
463,1.979,IMU1,82.07317073170732,-127.25609756097562,71.03658536585367,11.416015625,-16.369140625,2.7568359375
464,1.989,IMU0,85.85365853658537,-114.57317073170732,165.4878048780488,8.7685546875,-13.9619140625,1.8408203125
465,1.989,IMU1,75.97560975609757,-118.96341463414635,166.95121951219514,8.892578125,-14.068359375,1.8427734375
466,1.999,IMU0,29.573170731707318,-107.43902439024392,236.40243902439028,6.1328125,-12.7412109375,1.3623046875
467,1.999,IMU1,20.121951219512198,-113.90243902439025,236.95121951219514,6.2724609375,-12.791015625,1.3271484375
468,2.009,IMU0,24.695121951219516,-102.31707317073172,283.6585365853659,4.24609375,-11.2939453125,0.86328125
469,2.009,IMU1,8.109756097560977,-110.3658536585366,286.219512195122,4.2939453125,-11.3876953125,0.75390625
470,2.019,IMU0,54.451219512195124,-105.00000000000001,313.8414634146342,2.4580078125,-9.8994140625,0.388671875
471,2.019,IMU1,35.85365853658537,-113.29268292682927,317.31707317073176,2.49609375,-9.8759765625,0.3017578125
472,2.029,IMU0,48.29268292682927,-104.57317073170732,328.2317073170732,0.91796875,-9.4033203125,0.5380859375
473,2.029,IMU1,31.158536585365855,-113.29268292682927,332.31707317073176,0.9873046875,-9.3408203125,0.4462890625
474,2.039,IMU0,24.695121951219516,-109.02439024390245,329.69512195121956,-1.341796875,-9.2822265625,1.63671875
475,2.039,IMU1,8.841463414634147,-118.04878048780489,333.0487804878049,-1.3955078125,-9.2529296875,1.5400390625
476,2.049,IMU0,21.402439024390247,-114.69512195121952,311.76829268292687,-2.771484375,-9.529296875,2.30078125
477,2.049,IMU1,4.695121951219512,-120.91463414634147,316.4634146341464,-2.8916015625,-9.53125,2.1826171875
478,2.059,IMU0,23.78048780487805,-123.17073170731709,283.5975609756098,-3.685546875,-9.400390625,2.41796875
479,2.059,IMU1,7.439024390243903,-128.96341463414635,287.7439024390244,-3.796875,-9.416015625,2.2119140625
480,2.069,IMU0,1.3414634146341464,-135.609756097561,248.41463414634148,-4.29296875,-9.3466796875,2.4638671875
481,2.069,IMU1,-12.560975609756099,-140.609756097561,253.1707317073171,-4.3466796875,-9.3564453125,2.2646484375
482,2.079,IMU0,-19.02439024390244,-151.76829268292684,212.19512195121953,-4.201171875,-8.7197265625,2.5615234375
483,2.079,IMU1,-32.13414634146342,-155.5487804878049,216.09756097560978,-4.2626953125,-8.779296875,2.421875
484,2.089,IMU0,-21.219512195121954,-167.31707317073173,173.78048780487808,-3.7978515625,-8.1044921875,2.2421875
485,2.089,IMU1,-33.29268292682927,-169.81707317073173,177.50000000000003,-3.9013671875,-8.1416015625,2.154296875
486,2.099,IMU0,-21.219512195121954,-167.31707317073173,173.78048780487808,-3.7978515625,-8.1044921875,2.2421875
487,2.099,IMU1,-46.646341463414636,-187.31707317073173,141.82926829268294,-3.8251953125,-7.9716796875,1.89453125
488,2.109,IMU0,-61.95121951219513,-205.609756097561,104.45121951219514,-3.802734375,-7.5439453125,2.0166015625
489,2.109,IMU1,-73.78048780487805,-205.7926829268293,106.70731707317074,-3.9296875,-7.572265625,1.91015625
490,2.119,IMU0,-71.58536585365854,-225.4878048780488,67.8048780487805,-3.8662109375,-6.8369140625,2.0361328125
491,2.119,IMU1,-83.17073170731707,-224.45121951219514,69.45121951219512,-4.005859375,-6.8818359375,1.9384765625
492,2.129,IMU0,-77.07317073170732,-247.74390243902442,34.93902439024391,-3.388671875,-6.2099609375,1.5302734375
493,2.129,IMU1,-87.13414634146342,-245.12195121951223,35.670731707317074,-3.5185546875,-6.2451171875,1.4853515625
494,2.139,IMU0,-93.90243902439025,-268.9024390243903,7.439024390243903,-2.9677734375,-5.861328125,1.0537109375
495,2.139,IMU1,-103.47560975609757,-265.4878048780488,7.439024390243903,-3.0732421875,-5.8740234375,1.0126953125
496,2.149,IMU0,-102.92682926829269,-287.8048780487805,-15.000000000000002,-2.568359375,-5.3203125,0.671875
497,2.149,IMU1,-112.07317073170732,-283.1707317073171,-15.731707317073171,-2.6533203125,-5.333984375,0.6328125
498,2.159,IMU0,-103.41463414634147,-302.9878048780488,-33.35365853658537,-2.36328125,-4.9638671875,0.3974609375
499,2.159,IMU1,-111.89024390243904,-297.5609756097561,-34.63414634146342,-2.43359375,-4.9462890625,0.3740234375
500,2.169,IMU0,-111.09756097560977,-315.4878048780488,-48.53658536585366,-2.1416015625,-4.591796875,0.1455078125
501,2.169,IMU1,-118.90243902439025,-309.45121951219517,-50.1219512195122,-2.201171875,-4.568359375,0.1591796875
502,2.179,IMU0,-114.69512195121952,-325.1829268292683,-61.28048780487806,-2.01171875,-4.513671875,0.15234375
503,2.179,IMU1,-122.50000000000001,-318.7804878048781,-63.17073170731708,-2.0634765625,-4.484375,0.1767578125
504,2.189,IMU0,-115.48780487804879,-332.8658536585366,-71.89024390243902,-1.9052734375,-4.859375,0.109375
505,2.189,IMU1,-123.23170731707319,-325.9146341463415,-74.02439024390245,-1.96875,-4.8173828125,0.119140625
506,2.199,IMU0,-122.98780487804879,-338.2317073170732,-79.57317073170732,-1.6162109375,-4.91796875,0.1826171875
507,2.199,IMU1,-130.85365853658539,-331.0365853658537,-82.19512195121952,-1.6796875,-4.89453125,0.1767578125
508,2.209,IMU0,-127.07317073170732,-341.89024390243907,-85.2439024390244,-1.4365234375,-4.572265625,0.2236328125
509,2.209,IMU1,-134.51219512195124,-334.69512195121956,-87.8658536585366,-1.490234375,-4.5498046875,0.22265625
510,2.219,IMU0,-128.35365853658539,-345.2439024390244,-88.35365853658537,-1.228515625,-4.298828125,0.00390625
511,2.219,IMU1,-135.3048780487805,-337.7439024390244,-90.91463414634147,-1.291015625,-4.2666015625,0.029296875
512,2.229,IMU0,-133.71951219512195,-348.3536585365854,-89.32926829268294,-1.1083984375,-4.0068359375,-0.0859375
513,2.229,IMU1,-141.34146341463415,-341.0975609756098,-92.31707317073172,-1.1552734375,-3.9677734375,-0.0400390625
514,2.239,IMU0,-135.6707317073171,-352.56097560975616,-88.90243902439025,-0.9326171875,-3.744140625,-0.2158203125
515,2.239,IMU1,-143.2317073170732,-344.87804878048786,-92.19512195121952,-0.974609375,-3.6982421875,-0.1748046875
516,2.249,IMU0,-132.8658536585366,-355.9756097560976,-86.82926829268294,-0.7421875,-3.779296875,-0.4326171875
517,2.249,IMU1,-140.3658536585366,-348.3536585365854,-90.42682926829269,-0.767578125,-3.7177734375,-0.38671875
518,2.259,IMU0,-133.90243902439025,-360.9756097560976,-83.04878048780489,-0.5693359375,-3.6357421875,-0.751953125
519,2.259,IMU1,-141.70731707317074,-353.5975609756098,-86.82926829268294,-0.5830078125,-3.5791015625,-0.7041015625
520,2.269,IMU0,-131.15853658536585,-367.25609756097566,-78.17073170731707,-0.4140625,-3.25390625,-0.8564453125
521,2.269,IMU1,-139.02439024390245,-359.57317073170736,-82.31707317073172,-0.4345703125,-3.197265625,-0.78515625
522,2.279,IMU0,-126.09756097560977,-373.3536585365854,-73.29268292682927,-0.3193359375,-2.828125,-0.8759765625
523,2.279,IMU1,-134.14634146341464,-365.6707317073171,-77.19512195121952,-0.326171875,-2.7763671875,-0.7998046875
524,2.289,IMU0,-120.42682926829269,-378.8414634146342,-67.13414634146342,-0.310546875,-2.587890625,-0.9345703125
525,2.289,IMU1,-128.53658536585368,-371.4634146341464,-71.64634146341464,-0.3046875,-2.5322265625,-0.853515625
526,2.299,IMU0,-116.15853658536587,-384.69512195121956,-62.37804878048781,-0.2734375,-2.3837890625,-0.9326171875
527,2.299,IMU1,-124.45121951219514,-377.43902439024396,-66.03658536585367,-0.259765625,-2.3125,-0.845703125
528,2.309,IMU0,-110.3048780487805,-390.7317073170732,-56.40243902439025,-0.2255859375,-2.220703125,-0.8759765625
529,2.309,IMU1,-118.47560975609757,-383.5365853658537,-60.365853658536594,-0.236328125,-2.15625,-0.81640625
530,2.319,IMU0,-102.37804878048782,-396.5243902439025,-50.00000000000001,-0.095703125,-2.197265625,-0.9443359375
531,2.319,IMU1,-111.15853658536587,-389.87804878048786,-54.024390243902445,-0.1123046875,-2.140625,-0.853515625
532,2.329,IMU0,-96.28048780487806,-404.20731707317077,-42.07317073170732,0.1044921875,-2.2509765625,-1.01171875
533,2.329,IMU1,-105.1219512195122,-396.89024390243907,-46.28048780487805,0.091796875,-2.1982421875,-0.8994140625
534,2.339,IMU0,-86.52439024390245,-410.3658536585366,-32.743902439024396,0.203125,-2.5234375,-1.1884765625
535,2.339,IMU1,-95.48780487804879,-402.9268292682927,-37.43902439024391,0.208984375,-2.4560546875,-1.115234375
536,2.349,IMU0,-74.20731707317074,-413.8414634146342,-22.865853658536587,0.314453125,-2.5068359375,-1.271484375
537,2.349,IMU1,-83.47560975609757,-406.3414634146342,-27.5609756097561,0.3212890625,-2.44921875,-1.1982421875
538,2.359,IMU0,-65.60975609756098,-412.25609756097566,-14.207317073170733,0.138671875,-2.3095703125,-1.23828125
539,2.359,IMU1,-74.87804878048782,-405.4268292682927,-18.475609756097562,0.1552734375,-2.244140625,-1.130859375
540,2.369,IMU0,-52.01219512195122,-406.0365853658537,-7.134146341463415,-0.029296875,-2.341796875,-1.3271484375
541,2.369,IMU1,-60.91463414634147,-400.06097560975616,-11.219512195121952,-0.0166015625,-2.279296875,-1.2236328125
542,2.379,IMU0,-34.268292682926834,-397.13414634146346,-3.658536585365854,-0.4111328125,-2.55859375,-1.5390625
543,2.379,IMU1,-43.04878048780488,-391.70731707317077,-7.560975609756098,-0.396484375,-2.490234375,-1.4638671875
544,2.389,IMU0,-21.707317073170735,-387.07317073170736,-5.121951219512195,-0.919921875,-2.4541015625,-1.591796875
545,2.389,IMU1,-30.121951219512198,-381.89024390243907,-8.536585365853659,-0.8984375,-2.37890625,-1.525390625
546,2.399,IMU0,-7.500000000000001,-376.0365853658537,-10.853658536585368,-1.0576171875,-2.2099609375,-1.353515625
547,2.399,IMU1,-15.30487804878049,-370.9756097560976,-13.597560975609758,-1.0419921875,-2.13671875,-1.2939453125
548,2.409,IMU0,9.634146341463415,-365.00000000000006,-19.207317073170735,-1.19140625,-2.2587890625,-1.416015625
549,2.409,IMU1,1.9512195121951221,-359.93902439024396,-21.402439024390247,-1.162109375,-2.1826171875,-1.3515625
550,2.419,IMU0,21.28048780487805,-353.109756097561,-28.658536585365855,-1.3447265625,-2.421875,-1.4814453125
551,2.419,IMU1,14.329268292682928,-348.0487804878049,-30.975609756097565,-1.3330078125,-2.3447265625,-1.4140625
552,2.429,IMU0,30.975609756097565,-340.7317073170732,-40.60975609756098,-1.3486328125,-2.4609375,-1.310546875
553,2.429,IMU1,24.512195121951223,-335.5487804878049,-42.6829268292683,-1.3515625,-2.3828125,-1.248046875
554,2.439,IMU0,42.07317073170732,-328.4146341463415,-53.65853658536586,-1.2568359375,-2.3369140625,-1.052734375
555,2.439,IMU1,36.40243902439025,-323.5365853658537,-55.1219512195122,-1.263671875,-2.2626953125,-0.9677734375
556,2.449,IMU0,48.47560975609756,-318.5365853658537,-66.15853658536587,-1.1630859375,-2.0947265625,-0.814453125
557,2.449,IMU1,43.29268292682927,-313.0487804878049,-67.13414634146342,-1.1650390625,-2.0478515625,-0.7177734375
558,2.459,IMU0,51.34146341463415,-309.51219512195127,-78.17073170731707,-1.115234375,-2.0087890625,-0.595703125
559,2.459,IMU1,46.524390243902445,-303.8414634146342,-78.71951219512196,-1.123046875,-1.9833984375,-0.5224609375
560,2.469,IMU0,55.304878048780495,-300.4878048780488,-90.1219512195122,-1.18359375,-2.0078125,-0.4892578125
561,2.469,IMU1,50.91463414634147,-294.63414634146346,-90.67073170731707,-1.19921875,-1.97265625,-0.41796875
562,2.479,IMU0,54.69512195121952,-291.0365853658537,-102.25609756097562,-1.2666015625,-1.939453125,-0.3837890625
563,2.479,IMU1,50.79268292682927,-284.9390243902439,-103.10975609756099,-1.2783203125,-1.9130859375,-0.2998046875
564,2.489,IMU0,51.524390243902445,-281.6463414634147,-114.75609756097562,-1.10546875,-1.724609375,-0.2421875
565,2.489,IMU1,48.23170731707317,-275.3048780487805,-115.3658536585366,-1.1201171875,-1.7119140625,-0.1435546875
566,2.499,IMU0,49.87804878048781,-273.8414634146342,-125.91463414634147,-0.9501953125,-1.6044921875,-0.146484375
567,2.499,IMU1,46.89024390243903,-267.19512195121956,-125.97560975609757,-0.9658203125,-1.5947265625,-0.0341796875
568,2.509,IMU0,44.390243902439025,-267.5,-134.39024390243904,-0.814453125,-1.5234375,-0.0302734375
569,2.509,IMU1,41.463414634146346,-260.4878048780488,-135.0609756097561,-0.837890625,-1.5146484375,0.0673828125
570,2.519,IMU0,38.04878048780488,-262.07317073170736,-142.25609756097563,-0.6689453125,-1.4736328125,0.064453125
571,2.519,IMU1,35.36585365853659,-255.06097560975613,-142.5,-0.6962890625,-1.4609375,0.1689453125
572,2.529,IMU0,33.35365853658537,-258.109756097561,-148.47560975609758,-0.5322265625,-1.390625,0.091796875
573,2.529,IMU1,30.792682926829272,-251.09756097560978,-148.53658536585368,-0.5556640625,-1.3759765625,0.2119140625
574,2.539,IMU0,25.365853658536587,-255.5487804878049,-152.6829268292683,-0.4326171875,-1.3515625,0.140625
575,2.539,IMU1,22.439024390243905,-248.47560975609758,-152.9878048780488,-0.46875,-1.3359375,0.244140625
576,2.549,IMU0,17.926829268292686,-253.96341463414637,-156.09756097560978,-0.3662109375,-1.3310546875,0.1884765625
577,2.549,IMU1,15.060975609756099,-246.82926829268294,-156.40243902439025,-0.4033203125,-1.32421875,0.2919921875
578,2.559,IMU0,12.073170731707318,-252.9268292682927,-158.90243902439025,-0.3359375,-1.333984375,0.2041015625
579,2.559,IMU1,9.390243902439025,-245.7317073170732,-159.14634146341464,-0.3583984375,-1.322265625,0.2978515625
580,2.569,IMU0,3.048780487804878,-252.31707317073173,-160.91463414634148,-0.2958984375,-1.271484375,0.2099609375
581,2.569,IMU1,0.24390243902439027,-244.93902439024393,-161.09756097560978,-0.3232421875,-1.2666015625,0.318359375
582,2.579,IMU0,-4.573170731707317,-251.82926829268294,-162.01219512195124,-0.240234375,-1.1083984375,0.2294921875
583,2.579,IMU1,-7.560975609756098,-244.32926829268294,-162.5609756097561,-0.2744140625,-1.107421875,0.349609375
584,2.589,IMU0,-10.426829268292684,-251.40243902439028,-162.6219512195122,-0.1982421875,-0.9541015625,0.1962890625
585,2.589,IMU1,-13.78048780487805,-243.71951219512198,-163.35365853658539,-0.2353515625,-0.962890625,0.3310546875
586,2.599,IMU0,-19.75609756097561,-250.91463414634148,-163.2317073170732,-0.166015625,-0.875,0.166015625
587,2.599,IMU1,-23.170731707317074,-243.47560975609758,-163.41463414634148,-0.1865234375,-0.8779296875,0.3154296875
588,2.609,IMU0,-26.463414634146343,-250.6707317073171,-162.6219512195122,-0.107421875,-0.796875,0.1611328125
589,2.609,IMU1,-30.182926829268297,-243.1707317073171,-162.8658536585366,-0.1279296875,-0.8046875,0.3154296875
590,2.619,IMU0,-33.23170731707317,-250.7926829268293,-161.03658536585368,-0.0341796875,-0.8349609375,0.10546875
591,2.619,IMU1,-36.707317073170735,-243.0487804878049,-161.52439024390245,-0.052734375,-0.8369140625,0.267578125
592,2.629,IMU0,-41.951219512195124,-250.3658536585366,-158.84146341463415,0.0712890625,-0.8291015625,0.0771484375
593,2.629,IMU1,-45.487804878048784,-243.1707317073171,-159.14634146341464,0.0625,-0.8212890625,0.2294921875
594,2.639,IMU0,-47.01219512195122,-249.69512195121953,-155.2439024390244,0.1748046875,-0.767578125,0.033203125
595,2.639,IMU1,-50.97560975609756,-242.43902439024393,-155.3658536585366,0.16015625,-0.751953125,0.19140625
596,2.649,IMU0,-52.926829268292686,-248.59756097560978,-150.7317073170732,0.18359375,-0.689453125,0.0087890625
597,2.649,IMU1,-56.951219512195124,-241.46341463414637,-150.91463414634148,0.1611328125,-0.6787109375,0.1474609375
598,2.659,IMU0,-58.65853658536586,-246.40243902439028,-144.63414634146343,0.306640625,-0.7236328125,-0.111328125
599,2.659,IMU1,-62.43902439024391,-239.51219512195124,-145.7317073170732,0.2763671875,-0.7138671875,0.029296875
600,2.669,IMU0,-61.82926829268293,-242.9268292682927,-138.41463414634148,0.375,-0.7255859375,-0.2001953125
601,2.669,IMU1,-65.97560975609757,-236.34146341463418,-139.08536585365854,0.36328125,-0.712890625,-0.05859375
602,2.679,IMU0,-65.85365853658537,-239.20731707317074,-131.15853658536585,0.3916015625,-0.7138671875,-0.2236328125
603,2.679,IMU1,-70.1219512195122,-232.56097560975613,-131.89024390243904,0.373046875,-0.7041015625,-0.07421875
604,2.689,IMU0,-67.92682926829269,-234.87804878048783,-123.47560975609757,0.41015625,-0.6650390625,-0.232421875
605,2.689,IMU1,-72.43902439024392,-228.59756097560978,-124.75609756097562,0.3994140625,-0.6484375,-0.068359375
606,2.699,IMU0,-68.53658536585367,-230.4268292682927,-116.70731707317074,0.435546875,-0.66015625,-0.267578125
607,2.699,IMU1,-73.47560975609757,-224.39024390243904,-117.19512195121952,0.4208984375,-0.6396484375,-0.12109375
608,2.709,IMU0,-70.3658536585366,-225.06097560975613,-108.71951219512196,0.4599609375,-0.654296875,-0.3515625
609,2.709,IMU1,-75.73170731707317,-219.32926829268294,-109.20731707317074,0.453125,-0.6318359375,-0.2041015625
610,2.719,IMU0,-70.1219512195122,-219.14634146341464,-100.79268292682927,0.4921875,-0.6337890625,-0.3837890625
611,2.719,IMU1,-76.28048780487805,-213.59756097560978,-101.03658536585367,0.4873046875,-0.6220703125,-0.2294921875
612,2.729,IMU0,-69.02439024390245,-212.9268292682927,-92.6219512195122,0.5224609375,-0.6552734375,-0.41796875
613,2.729,IMU1,-74.75609756097562,-207.8658536585366,-92.6219512195122,0.525390625,-0.6337890625,-0.275390625
614,2.739,IMU0,-68.04878048780489,-206.70731707317074,-84.51219512195122,0.505859375,-0.6474609375,-0.4404296875
615,2.739,IMU1,-74.20731707317074,-202.01219512195124,-84.20731707317074,0.50390625,-0.62109375,-0.3154296875
616,2.749,IMU0,-65.97560975609757,-200.3658536585366,-76.95121951219512,0.4521484375,-0.611328125,-0.5029296875
617,2.749,IMU1,-72.31707317073172,-195.97560975609758,-76.28048780487805,0.466796875,-0.578125,-0.357421875
618,2.759,IMU0,-62.01219512195122,-193.2317073170732,-69.69512195121952,0.4013671875,-0.5947265625,-0.5517578125
619,2.759,IMU1,-68.53658536585367,-189.45121951219514,-68.96341463414635,0.41015625,-0.5556640625,-0.4169921875
620,2.769,IMU0,-60.426829268292686,-186.70731707317074,-63.17073170731708,0.3427734375,-0.5146484375,-0.5234375
621,2.769,IMU1,-66.89024390243902,-183.109756097561,-62.43902439024391,0.3330078125,-0.4853515625,-0.3681640625
622,2.779,IMU0,-56.82926829268293,-181.21951219512198,-57.6219512195122,0.279296875,-0.416015625,-0.462890625
623,2.779,IMU1,-63.53658536585366,-177.6219512195122,-56.951219512195124,0.2822265625,-0.4013671875,-0.3017578125
624,2.789,IMU0,-53.29268292682927,-176.21951219512198,-52.926829268292686,0.2578125,-0.390625,-0.4345703125
625,2.789,IMU1,-60.060975609756106,-172.9878048780488,-52.01219512195122,0.255859375,-0.365234375,-0.294921875
626,2.799,IMU0,-52.31707317073171,-171.76829268292684,-48.29268292682927,0.26953125,-0.3505859375,-0.443359375
627,2.799,IMU1,-59.024390243902445,-168.71951219512198,-47.25609756097561,0.2490234375,-0.3349609375,-0.2919921875
628,2.809,IMU0,-47.743902439024396,-167.37804878048783,-44.146341463414636,0.25390625,-0.31640625,-0.4130859375
629,2.809,IMU1,-55.54878048780488,-164.51219512195124,-42.926829268292686,0.2353515625,-0.2998046875,-0.2763671875
630,2.819,IMU0,-43.90243902439025,-163.0487804878049,-40.304878048780495,0.2353515625,-0.3115234375,-0.4404296875
631,2.819,IMU1,-51.585365853658544,-160.2439024390244,-38.84146341463415,0.2138671875,-0.2919921875,-0.291015625
632,2.829,IMU0,-41.82926829268293,-158.59756097560978,-36.40243902439025,0.2080078125,-0.3095703125,-0.4755859375
633,2.829,IMU1,-49.75609756097561,-156.09756097560978,-34.93902439024391,0.201171875,-0.2841796875,-0.30859375
634,2.839,IMU0,-37.43902439024391,-153.84146341463415,-33.170731707317074,0.1953125,-0.322265625,-0.5048828125
635,2.839,IMU1,-45.304878048780495,-151.58536585365854,-31.402439024390247,0.1923828125,-0.2783203125,-0.3427734375
636,2.849,IMU0,-33.65853658536586,-149.14634146341464,-30.000000000000004,0.1865234375,-0.3271484375,-0.5478515625
637,2.849,IMU1,-40.91463414634147,-146.82926829268294,-27.987804878048784,0.1767578125,-0.28125,-0.38671875
638,2.859,IMU0,-30.365853658536587,-144.14634146341464,-26.82926829268293,0.158203125,-0.306640625,-0.5595703125
639,2.859,IMU1,-37.43902439024391,-141.89024390243904,-24.81707317073171,0.162109375,-0.2705078125,-0.4091796875
640,2.869,IMU0,-24.02439024390244,-138.41463414634148,-24.512195121951223,0.1689453125,-0.287109375,-0.6044921875
641,2.869,IMU1,-31.34146341463415,-136.52439024390245,-22.012195121951223,0.15625,-0.265625,-0.44921875
642,2.879,IMU0,-18.719512195121954,-132.5609756097561,-21.707317073170735,0.15625,-0.302734375,-0.6611328125
643,2.879,IMU1,-25.975609756097562,-130.6707317073171,-19.207317073170735,0.1572265625,-0.27734375,-0.5068359375
644,2.889,IMU0,-15.243902439024392,-126.28048780487806,-19.02439024390244,0.1416015625,-0.28515625,-0.6416015625
645,2.889,IMU1,-21.707317073170735,-124.69512195121952,-16.52439024390244,0.15234375,-0.2587890625,-0.4873046875
646,2.899,IMU0,-7.378048780487806,-120.48780487804879,-16.82926829268293,0.15234375,-0.2939453125,-0.64453125
647,2.899,IMU1,-14.451219512195124,-118.84146341463416,-14.146341463414636,0.154296875,-0.2578125,-0.4912109375
648,2.909,IMU0,-1.4634146341463417,-114.20731707317074,-15.000000000000002,0.1494140625,-0.3046875,-0.6884765625
649,2.909,IMU1,-8.353658536585366,-112.8658536585366,-11.76829268292683,0.150390625,-0.2841796875,-0.5263671875
650,2.919,IMU0,3.048780487804878,-107.92682926829269,-13.04878048780488,0.1474609375,-0.3076171875,-0.6796875
651,2.919,IMU1,-3.8414634146341466,-106.82926829268294,-9.573170731707318,0.1416015625,-0.2880859375,-0.52734375
652,2.929,IMU0,10.121951219512196,-101.70731707317074,-11.463414634146343,0.146484375,-0.3095703125,-0.666015625
653,2.929,IMU1,3.536585365853659,-100.91463414634147,-7.560975609756098,0.138671875,-0.283203125,-0.505859375
654,2.939,IMU0,14.878048780487806,-96.46341463414635,-9.939024390243903,0.1240234375,-0.2880859375,-0.611328125
655,2.939,IMU1,8.475609756097562,-95.54878048780489,-5.7926829268292686,0.1240234375,-0.26953125,-0.44921875
656,2.949,IMU0,20.0,-91.89024390243904,-8.597560975609756,0.115234375,-0.2685546875,-0.5537109375
657,2.949,IMU1,12.926829268292684,-90.97560975609757,-4.2682926829268295,0.1171875,-0.248046875,-0.388671875
658,2.959,IMU0,26.52439024390244,-87.8658536585366,-7.439024390243903,0.103515625,-0.287109375,-0.5400390625
659,2.959,IMU1,19.573170731707318,-86.70731707317074,-2.9268292682926833,0.1162109375,-0.2568359375,-0.375
660,2.969,IMU0,29.08536585365854,-83.78048780487805,-5.914634146341464,0.1064453125,-0.2880859375,-0.501953125
661,2.969,IMU1,22.682926829268293,-83.04878048780489,-1.5853658536585367,0.1103515625,-0.25390625,-0.34765625
662,2.979,IMU0,33.29268292682927,-80.3658536585366,-4.695121951219512,0.09375,-0.248046875,-0.4326171875
663,2.979,IMU1,26.58536585365854,-79.75609756097562,-0.5487804878048781,0.0986328125,-0.2265625,-0.2880859375
664,2.989,IMU0,39.146341463414636,-77.13414634146342,-4.451219512195122,0.091796875,-0.2470703125,-0.4248046875
665,2.989,IMU1,32.31707317073171,-76.52439024390245,0.24390243902439027,0.087890625,-0.2333984375,-0.2841796875
666,2.999,IMU0,40.73170731707317,-73.90243902439025,-3.5975609756097566,0.091796875,-0.244140625,-0.43359375
667,2.999,IMU1,34.32926829268293,-73.29268292682927,1.0975609756097562,0.0830078125,-0.2373046875,-0.28125
668,3.009,IMU0,44.207317073170735,-70.60975609756098,-3.1097560975609757,0.0888671875,-0.2275390625,-0.38671875
669,3.009,IMU1,38.10975609756098,-70.2439024390244,1.7682926829268295,0.0849609375,-0.21875,-0.23828125
670,3.019,IMU0,49.451219512195124,-68.04878048780489,-2.3170731707317076,0.0830078125,-0.248046875,-0.40234375
671,3.019,IMU1,43.04878048780488,-67.37804878048782,2.439024390243903,0.08984375,-0.2275390625,-0.2373046875
672,3.029,IMU0,50.91463414634147,-65.60975609756098,-1.524390243902439,0.0947265625,-0.248046875,-0.380859375
673,3.029,IMU1,44.69512195121952,-65.0609756097561,3.1707317073170733,0.095703125,-0.228515625,-0.22265625
674,3.039,IMU0,54.87804878048781,-63.65853658536586,-1.1585365853658538,0.09765625,-0.2314453125,-0.3525390625
675,3.039,IMU1,48.41463414634147,-62.926829268292686,3.8414634146341466,0.1015625,-0.2177734375,-0.1884765625
676,3.049,IMU0,58.65853658536586,-61.463414634146346,-0.426829268292683,0.11328125,-0.2451171875,-0.36328125
677,3.049,IMU1,52.13414634146342,-61.09756097560976,4.51219512195122,0.1005859375,-0.228515625,-0.1923828125
678,3.059,IMU0,60.00000000000001,-59.81707317073171,0.06097560975609757,0.1015625,-0.2431640625,-0.3447265625
679,3.059,IMU1,53.53658536585366,-59.451219512195124,5.182926829268293,0.0986328125,-0.228515625,-0.181640625
680,3.069,IMU0,63.47560975609757,-57.865853658536594,0.6707317073170732,0.099609375,-0.228515625,-0.3388671875
681,3.069,IMU1,57.07317073170732,-57.926829268292686,5.670731707317073,0.0966796875,-0.2197265625,-0.15625
682,3.079,IMU0,66.46341463414635,-56.524390243902445,1.2195121951219514,0.0986328125,-0.2412109375,-0.3359375
683,3.079,IMU1,60.243902439024396,-56.463414634146346,6.158536585365854,0.091796875,-0.2265625,-0.158203125
684,3.089,IMU0,67.43902439024392,-55.1829268292683,1.7682926829268295,0.09375,-0.2216796875,-0.2939453125
685,3.089,IMU1,61.524390243902445,-55.1219512195122,6.585365853658537,0.0869140625,-0.212890625,-0.123046875
686,3.099,IMU0,70.85365853658537,-53.84146341463415,1.829268292682927,0.0791015625,-0.2109375,-0.275390625
687,3.099,IMU1,64.81707317073172,-53.90243902439025,6.951219512195123,0.083984375,-0.2001953125,-0.0986328125
688,3.109,IMU0,73.23170731707317,-52.743902439024396,1.707317073170732,0.0849609375,-0.2158203125,-0.2607421875
689,3.109,IMU1,67.01219512195122,-52.743902439024396,7.134146341463415,0.0771484375,-0.2060546875,-0.0947265625
690,3.119,IMU0,73.96341463414635,-51.707317073170735,2.073170731707317,0.0849609375,-0.19921875,-0.236328125
691,3.119,IMU1,67.7439024390244,-51.82926829268293,7.439024390243903,0.0732421875,-0.1962890625,-0.064453125
692,3.129,IMU0,76.82926829268294,-50.97560975609756,2.5609756097560976,0.087890625,-0.1953125,-0.2021484375
693,3.129,IMU1,70.48780487804879,-51.09756097560976,7.621951219512196,0.0693359375,-0.1875,-0.0478515625
694,3.139,IMU0,77.7439024390244,-50.304878048780495,2.6219512195121952,0.08203125,-0.185546875,-0.1875
695,3.139,IMU1,71.58536585365854,-50.487804878048784,7.8048780487804885,0.064453125,-0.185546875,-0.041015625
696,3.149,IMU0,78.41463414634147,-49.69512195121952,2.7439024390243905,0.0673828125,-0.1689453125,-0.16015625
697,3.149,IMU1,72.25609756097562,-50.00000000000001,7.865853658536586,0.0625,-0.166015625,-0.0078125
698,3.159,IMU0,80.97560975609757,-49.57317073170732,2.682926829268293,0.060546875,-0.171875,-0.14453125
699,3.159,IMU1,74.57317073170732,-49.75609756097561,7.926829268292684,0.0595703125,-0.158203125,0.0068359375
700,3.169,IMU0,80.60975609756099,-49.69512195121952,2.804878048780488,0.0595703125,-0.1630859375,-0.150390625
701,3.169,IMU1,74.93902439024392,-49.87804878048781,7.987804878048781,0.056640625,-0.1572265625,0.01953125
702,3.179,IMU0,81.15853658536587,-49.69512195121952,2.7439024390243905,0.0732421875,-0.1396484375,-0.1162109375
703,3.179,IMU1,75.3658536585366,-50.1829268292683,7.926829268292684,0.05078125,-0.140625,0.046875
704,3.189,IMU0,83.10975609756099,-50.00000000000001,2.6219512195121952,0.068359375,-0.1611328125,-0.115234375
705,3.189,IMU1,77.13414634146342,-50.426829268292686,7.743902439024391,0.0458984375,-0.1552734375,0.0498046875
706,3.199,IMU0,82.5609756097561,-50.1219512195122,2.3170731707317076,0.0546875,-0.15625,-0.10546875
707,3.199,IMU1,76.89024390243902,-50.670731707317074,7.560975609756098,0.03515625,-0.158203125,0.0537109375
708,3.209,IMU0,83.10975609756099,-50.243902439024396,1.9512195121951221,0.0654296875,-0.1376953125,-0.07421875
709,3.209,IMU1,77.19512195121952,-50.85365853658537,7.25609756097561,0.03125,-0.14453125,0.072265625
710,3.219,IMU0,84.32926829268294,-50.91463414634147,1.5853658536585367,0.052734375,-0.140625,-0.0615234375
711,3.219,IMU1,78.59756097560977,-51.09756097560976,6.829268292682928,0.025390625,-0.13671875,0.0791015625
712,3.229,IMU0,83.96341463414635,-51.28048780487806,1.0365853658536586,0.046875,-0.1337890625,-0.08203125
713,3.229,IMU1,78.04878048780489,-51.34146341463415,6.402439024390245,0.0224609375,-0.126953125,0.0830078125
714,3.239,IMU0,84.02439024390245,-51.34146341463415,0.5487804878048781,0.0458984375,-0.111328125,-0.068359375
715,3.239,IMU1,78.41463414634147,-51.463414634146346,5.975609756097562,0.0185546875,-0.1064453125,0.09375
716,3.249,IMU0,84.69512195121952,-51.40243902439025,-0.30487804878048785,0.0458984375,-0.12109375,-0.076171875
717,3.249,IMU1,79.02439024390245,-51.646341463414636,5.426829268292684,0.017578125,-0.10546875,0.091796875
718,3.259,IMU0,83.53658536585367,-51.463414634146346,-0.5487804878048781,0.0400390625,-0.1064453125,-0.0556640625
719,3.259,IMU1,78.41463414634147,-51.707317073170735,5.0,0.015625,-0.09765625,0.0927734375
720,3.269,IMU0,84.81707317073172,-51.463414634146346,-1.0365853658536586,0.0537109375,-0.0869140625,-0.05078125
721,3.269,IMU1,79.02439024390245,-51.707317073170735,4.51219512195122,0.0205078125,-0.087890625,0.1025390625
722,3.279,IMU0,85.3048780487805,-51.646341463414636,-1.5853658536585367,0.041015625,-0.09375,-0.078125
723,3.279,IMU1,79.75609756097562,-51.768292682926834,4.024390243902439,0.0224609375,-0.08984375,0.099609375
724,3.289,IMU0,84.32926829268294,-51.82926829268293,-1.829268292682927,0.0400390625,-0.083984375,-0.0810546875
725,3.289,IMU1,79.02439024390245,-52.01219512195122,3.5975609756097566,0.02734375,-0.0888671875,0.1015625
726,3.299,IMU0,85.0609756097561,-51.707317073170735,-2.073170731707317,0.0478515625,-0.09375,-0.05078125
727,3.299,IMU1,79.69512195121952,-52.07317073170732,3.1707317073170733,0.0283203125,-0.0986328125,0.111328125
728,3.309,IMU0,85.2439024390244,-51.768292682926834,-2.6219512195121952,0.060546875,-0.1171875,-0.064453125
729,3.309,IMU1,79.81707317073172,-52.07317073170732,2.7439024390243905,0.0341796875,-0.119140625,0.109375
730,3.319,IMU0,84.57317073170732,-51.707317073170735,-2.8658536585365857,0.0595703125,-0.1025390625,-0.033203125
731,3.319,IMU1,79.14634146341464,-52.13414634146342,2.439024390243903,0.0380859375,-0.1123046875,0.1181640625
732,3.329,IMU0,85.3658536585366,-51.951219512195124,-3.414634146341464,0.05078125,-0.0888671875,-0.0322265625
733,3.329,IMU1,80.0,-52.19512195121952,2.073170731707317,0.037109375,-0.09765625,0.1328125
734,3.339,IMU0,85.2439024390244,-52.25609756097561,-3.9024390243902443,0.0576171875,-0.0908203125,-0.052734375
735,3.339,IMU1,79.75609756097562,-52.43902439024391,1.707317073170732,0.037109375,-0.0947265625,0.130859375
736,3.349,IMU0,84.57317073170732,-52.6829268292683,-4.2682926829268295,0.037109375,-0.0791015625,-0.0478515625
737,3.349,IMU1,79.20731707317074,-52.743902439024396,1.402439024390244,0.037109375,-0.08203125,0.1455078125
738,3.359,IMU0,84.75609756097562,-53.17073170731708,-4.2682926829268295,0.0546875,-0.068359375,-0.03125
739,3.359,IMU1,79.63414634146342,-52.987804878048784,1.0975609756097562,0.033203125,-0.0751953125,0.154296875
740,3.369,IMU0,84.63414634146342,-53.59756097560976,-5.060975609756098,0.048828125,-0.072265625,-0.02734375
741,3.369,IMU1,79.20731707317074,-53.23170731707317,0.7317073170731708,0.029296875,-0.0732421875,0.146484375
742,3.379,IMU0,84.02439024390245,-53.65853658536586,-4.939024390243903,0.044921875,-0.0517578125,-0.0068359375
743,3.379,IMU1,78.78048780487805,-53.53658536585366,0.30487804878048785,0.0234375,-0.0625,0.15625
744,3.389,IMU0,84.39024390243902,-53.78048780487806,-5.609756097560976,0.052734375,-0.060546875,-0.013671875
745,3.389,IMU1,78.96341463414635,-53.78048780487806,-0.12195121951219513,0.0205078125,-0.0615234375,0.1513671875
746,3.399,IMU0,83.47560975609757,-53.65853658536586,-5.7926829268292686,0.0458984375,-0.0625,-0.0234375
747,3.399,IMU1,78.17073170731707,-54.024390243902445,-0.5487804878048781,0.0205078125,-0.0615234375,0.1474609375
748,3.409,IMU0,83.47560975609757,-54.024390243902445,-6.463414634146342,0.0419921875,-0.0361328125,-0.0078125
749,3.409,IMU1,77.7439024390244,-54.207317073170735,-1.0365853658536586,0.01953125,-0.05078125,0.1611328125
750,3.419,IMU0,83.35365853658537,-54.268292682926834,-7.378048780487806,0.04296875,-0.0361328125,-0.009765625
751,3.419,IMU1,77.8048780487805,-54.57317073170732,-1.524390243902439,0.0224609375,-0.0478515625,0.1591796875
752,3.429,IMU0,82.50000000000001,-54.75609756097561,-7.865853658536586,0.0615234375,-0.0546875,-0.0029296875
753,3.429,IMU1,76.82926829268294,-54.87804878048781,-1.9512195121951221,0.0234375,-0.044921875,0.1640625
754,3.439,IMU0,82.13414634146342,-55.487804878048784,-8.292682926829269,0.0634765625,-0.052734375,0.009765625
755,3.439,IMU1,76.40243902439025,-55.304878048780495,-2.378048780487805,0.0234375,-0.0390625,0.177734375
756,3.449,IMU0,81.95121951219512,-55.73170731707317,-8.292682926829269,0.0625,-0.0419921875,0.0029296875
757,3.449,IMU1,76.21951219512196,-55.73170731707317,-2.8658536585365857,0.025390625,-0.041015625,0.173828125
758,3.459,IMU0,81.09756097560977,-56.15853658536586,-8.414634146341465,0.05078125,-0.037109375,0.005859375
759,3.459,IMU1,75.0609756097561,-56.28048780487806,-3.231707317073171,0.0263671875,-0.037109375,0.1806640625
760,3.469,IMU0,80.54878048780489,-56.768292682926834,-9.02439024390244,0.0380859375,-0.0380859375,0.01171875
761,3.469,IMU1,74.93902439024392,-56.768292682926834,-3.7195121951219514,0.02734375,-0.0361328125,0.1875
762,3.479,IMU0,80.0609756097561,-57.560975609756106,-9.207317073170733,0.03515625,-0.0302734375,0.0166015625
763,3.479,IMU1,74.32926829268294,-57.25609756097561,-4.085365853658537,0.0302734375,-0.0439453125,0.181640625
764,3.489,IMU0,78.96341463414635,-58.29268292682927,-9.451219512195122,0.0576171875,-0.037109375,0.0087890625
765,3.489,IMU1,73.23170731707317,-58.04878048780488,-4.451219512195122,0.0615234375,-0.044921875,0.1962890625
766,3.499,IMU0,85.42682926829269,-64.51219512195122,-4.207317073170732,0.87109375,-0.0556640625,-1.4404296875
767,3.499,IMU1,72.6219512195122,-52.01219512195122,-2.0121951219512195,-0.01953125,-0.103515625,-1.0087890625
768,3.509,IMU0,81.64634146341464,-59.146341463414636,-7.926829268292684,0.3623046875,-0.07421875,-0.94140625
769,3.509,IMU1,69.51219512195122,-59.207317073170735,-5.3048780487804885,-0.1123046875,-0.0263671875,-0.8916015625
770,3.519,IMU0,47.07317073170732,-60.060975609756106,19.573170731707318,0.2314453125,-0.0634765625,-0.572265625
771,3.519,IMU1,66.70731707317074,-60.97560975609757,-4.390243902439025,0.01953125,-0.001953125,-0.4375
772,3.529,IMU0,63.41463414634147,-61.15853658536586,5.365853658536586,0.1650390625,-0.0791015625,-0.23046875
773,3.529,IMU1,69.57317073170732,-61.21951219512196,-4.75609756097561,0.01171875,-0.05078125,-0.1005859375
774,3.539,IMU0,68.78048780487805,-60.73170731707317,-3.1707317073170733,0.11328125,-0.0830078125,-0.1123046875
775,3.539,IMU1,69.26829268292684,-60.85365853658537,-6.097560975609756,0.044921875,-0.0673828125,0.03515625
776,3.549,IMU0,69.93902439024392,-61.28048780487806,-6.2804878048780495,0.0830078125,-0.0947265625,-0.015625
777,3.549,IMU1,67.7439024390244,-61.21951219512196,-5.487804878048781,0.04296875,-0.083984375,0.1357421875
778,3.559,IMU0,71.64634146341464,-61.768292682926834,-9.329268292682928,0.0517578125,-0.05859375,-0.0185546875
779,3.559,IMU1,67.6219512195122,-61.585365853658544,-5.914634146341464,0.0390625,-0.052734375,0.1396484375
780,3.569,IMU0,71.58536585365854,-62.25609756097562,-11.341463414634147,-0.0234375,-0.0634765625,0.044921875
781,3.569,IMU1,66.52439024390245,-62.804878048780495,-6.707317073170732,0.0205078125,-0.041015625,0.251953125
782,3.579,IMU0,72.13414634146342,-63.35365853658537,-11.341463414634147,0.0751953125,-0.05078125,-0.0107421875
783,3.579,IMU1,66.95121951219512,-63.47560975609757,-6.585365853658537,0.0234375,-0.068359375,0.1826171875
784,3.589,IMU0,71.64634146341464,-64.02439024390245,-12.195121951219512,0.052734375,-0.0595703125,-0.033203125
785,3.589,IMU1,65.91463414634147,-64.08536585365854,-6.890243902439025,0.0068359375,-0.0595703125,0.1962890625
786,3.599,IMU0,69.63414634146342,-64.87804878048782,-12.378048780487806,0.044921875,-0.0341796875,0.0185546875
787,3.599,IMU1,64.45121951219512,-64.69512195121952,-7.378048780487806,0.01953125,-0.0419921875,0.2001953125
788,3.609,IMU0,70.1219512195122,-65.73170731707317,-12.256097560975611,0.0419921875,-0.048828125,-0.0146484375
789,3.609,IMU1,64.57317073170732,-65.48780487804879,-7.500000000000001,0.0205078125,-0.048828125,0.162109375
790,3.619,IMU0,70.1219512195122,-66.46341463414635,-12.926829268292684,0.0576171875,-0.0458984375,0.009765625
791,3.619,IMU1,64.26829268292684,-66.15853658536587,-7.865853658536586,0.0166015625,-0.048828125,0.193359375
792,3.629,IMU0,68.65853658536587,-67.25609756097562,-13.29268292682927,0.05859375,-0.0439453125,0.0458984375
793,3.629,IMU1,62.560975609756106,-66.82926829268293,-8.231707317073171,0.0166015625,-0.048828125,0.1962890625
794,3.639,IMU0,67.8658536585366,-68.04878048780489,-13.109756097560977,0.056640625,-0.0234375,0.0166015625
795,3.639,IMU1,61.82926829268293,-67.5609756097561,-8.475609756097562,0.0185546875,-0.041015625,0.1796875
796,3.649,IMU0,67.43902439024392,-69.08536585365854,-13.536585365853659,0.0380859375,-0.0234375,0.0205078125
797,3.649,IMU1,61.28048780487806,-68.35365853658537,-8.841463414634147,0.0166015625,-0.0341796875,0.1875
798,3.659,IMU0,66.40243902439025,-69.81707317073172,-14.02439024390244,0.052734375,-0.03125,0.00390625
799,3.659,IMU1,60.426829268292686,-69.08536585365854,-9.207317073170733,0.021484375,-0.0400390625,0.1787109375
800,3.669,IMU0,65.79268292682927,-70.2439024390244,-14.329268292682928,0.0390625,-0.037109375,0.0283203125
801,3.669,IMU1,59.93902439024391,-69.69512195121952,-9.573170731707318,0.0234375,-0.037109375,0.1767578125
802,3.679,IMU0,65.0,-71.09756097560977,-14.390243902439027,0.0361328125,-0.037109375,0.0078125
803,3.679,IMU1,58.963414634146346,-70.3048780487805,-9.878048780487806,0.0205078125,-0.03515625,0.1669921875
804,3.689,IMU0,63.90243902439025,-71.58536585365854,-14.695121951219514,0.0283203125,-0.0283203125,0.0009765625
805,3.689,IMU1,58.23170731707317,-70.85365853658537,-10.426829268292684,0.0244140625,-0.02734375,0.1650390625
806,3.699,IMU0,63.71951219512196,-72.13414634146342,-15.243902439024392,0.033203125,-0.0224609375,-0.0068359375
807,3.699,IMU1,58.23170731707317,-71.34146341463415,-10.731707317073171,0.025390625,-0.0283203125,0.1650390625
808,3.709,IMU0,63.04878048780488,-72.31707317073172,-15.731707317073171,0.0341796875,-0.0224609375,-0.01171875
809,3.709,IMU1,57.43902439024391,-71.64634146341464,-11.158536585365855,0.0263671875,-0.03125,0.1591796875
810,3.719,IMU0,62.07317073170732,-72.8048780487805,-15.670731707317074,0.0361328125,-0.005859375,0.0146484375
811,3.719,IMU1,56.28048780487806,-72.07317073170732,-11.52439024390244,0.02734375,-0.021484375,0.16015625
812,3.729,IMU0,62.13414634146342,-72.92682926829269,-16.463414634146343,0.044921875,-0.0146484375,0.0302734375
813,3.729,IMU1,56.21951219512196,-72.31707317073172,-11.890243902439025,0.0244140625,-0.01953125,0.15625
814,3.739,IMU0,61.463414634146346,-73.35365853658537,-16.646341463414636,0.0478515625,-0.0205078125,0.0068359375
815,3.739,IMU1,55.54878048780488,-72.5,-12.317073170731708,0.0234375,-0.021484375,0.150390625
816,3.749,IMU0,60.67073170731708,-73.35365853658537,-17.012195121951223,0.0517578125,-0.0185546875,0.001953125
817,3.749,IMU1,54.87804878048781,-72.6829268292683,-12.682926829268293,0.021484375,-0.0166015625,0.154296875
818,3.759,IMU0,60.67073170731708,-73.47560975609757,-17.682926829268293,0.0625,-0.0166015625,-0.02734375
819,3.759,IMU1,54.63414634146342,-72.7439024390244,-13.04878048780488,0.021484375,-0.017578125,0.15625
820,3.769,IMU0,59.69512195121952,-73.47560975609757,-18.04878048780488,0.044921875,-0.013671875,-0.0146484375
821,3.769,IMU1,53.90243902439025,-72.8048780487805,-13.475609756097562,0.0205078125,-0.013671875,0.1455078125
822,3.779,IMU0,59.32926829268293,-73.53658536585367,-18.170731707317074,0.0400390625,0.0009765625,-0.015625
823,3.779,IMU1,53.65853658536586,-72.8048780487805,-13.841463414634148,0.017578125,-0.009765625,0.1484375
824,3.789,IMU0,58.84146341463415,-73.59756097560977,-18.658536585365855,0.0439453125,-0.0126953125,-0.03125
825,3.789,IMU1,53.41463414634147,-72.8048780487805,-14.207317073170733,0.0166015625,-0.0107421875,0.1455078125
826,3.799,IMU0,58.17073170731708,-73.59756097560977,-19.085365853658537,0.0302734375,-0.02734375,-0.0224609375
827,3.799,IMU1,52.5609756097561,-72.7439024390244,-14.573170731707318,0.013671875,-0.0087890625,0.1376953125
828,3.809,IMU0,57.560975609756106,-73.59756097560977,-19.451219512195124,0.0244140625,-0.0126953125,-0.0478515625
829,3.809,IMU1,52.25609756097561,-72.8048780487805,-14.939024390243905,0.01171875,-0.0048828125,0.1455078125
830,3.819,IMU0,57.37804878048781,-73.65853658536587,-19.75609756097561,0.03125,0.001953125,-0.0390625
831,3.819,IMU1,52.01219512195122,-72.7439024390244,-15.365853658536587,0.01171875,-0.0068359375,0.1376953125
832,3.829,IMU0,56.82926829268293,-73.59756097560977,-20.121951219512198,0.03515625,-0.0068359375,-0.0078125
833,3.829,IMU1,51.28048780487806,-72.6829268292683,-15.79268292682927,0.0107421875,-0.0048828125,0.1337890625
834,3.839,IMU0,56.707317073170735,-73.41463414634147,-20.670731707317074,0.03515625,-0.0048828125,-0.0537109375
835,3.839,IMU1,51.03658536585366,-72.6829268292683,-16.28048780487805,0.0087890625,-0.0029296875,0.1396484375
836,3.849,IMU0,56.21951219512196,-73.41463414634147,-21.219512195121954,0.0361328125,-0.0107421875,-0.0380859375
837,3.849,IMU1,50.54878048780488,-72.6219512195122,-16.646341463414636,0.0087890625,-0.0048828125,0.126953125
838,3.859,IMU0,54.87804878048781,-73.96341463414635,-21.646341463414636,0.03515625,-0.0048828125,-0.0537109375
839,3.859,IMU1,49.87804878048781,-72.6219512195122,-17.012195121951223,0.0078125,-0.001953125,0.12890625
840,3.869,IMU0,55.243902439024396,-73.53658536585367,-21.82926829268293,0.0361328125,-0.0068359375,-0.0517578125
841,3.869,IMU1,49.75609756097561,-72.5609756097561,-17.439024390243905,0.0068359375,-0.001953125,0.1298828125
842,3.879,IMU0,54.69512195121952,-73.53658536585367,-22.439024390243905,0.01953125,-0.013671875,-0.0439453125
843,3.879,IMU1,49.268292682926834,-72.43902439024392,-17.804878048780488,0.0048828125,-0.00390625,0.123046875
844,3.889,IMU0,53.90243902439025,-73.47560975609757,-22.865853658536587,0.02734375,-0.009765625,-0.029296875
845,3.889,IMU1,48.78048780487805,-72.43902439024392,-18.231707317073173,0.00390625,-0.0009765625,0.1318359375
846,3.899,IMU0,53.65853658536586,-73.53658536585367,-23.231707317073173,0.0263671875,-0.01953125,-0.0458984375
847,3.899,IMU1,48.78048780487805,-72.31707317073172,-18.658536585365855,0.00390625,0.0,0.1279296875
848,3.909,IMU0,53.47560975609757,-73.17073170731707,-23.658536585365855,0.01171875,-0.0087890625,-0.03515625
849,3.909,IMU1,48.170731707317074,-72.25609756097562,-19.085365853658537,0.0029296875,-0.001953125,0.125
850,3.919,IMU0,53.04878048780488,-73.10975609756098,-24.02439024390244,0.0087890625,-0.0078125,-0.0283203125
851,3.919,IMU1,47.43902439024391,-72.19512195121952,-19.451219512195124,0.0029296875,0.0,0.1337890625
852,3.929,IMU0,53.29268292682927,-73.23170731707317,-24.390243902439025,0.0205078125,-0.0087890625,-0.02734375
853,3.929,IMU1,47.43902439024391,-72.19512195121952,-19.939024390243905,0.001953125,0.0,0.1279296875
854,3.939,IMU0,52.50000000000001,-72.92682926829269,-25.182926829268293,0.021484375,-0.0107421875,-0.0361328125
855,3.939,IMU1,46.82926829268293,-72.13414634146342,-20.30487804878049,0.0029296875,-0.0009765625,0.1298828125
856,3.949,IMU0,51.707317073170735,-73.23170731707317,-25.121951219512198,0.0224609375,-0.01171875,-0.0400390625
857,3.949,IMU1,46.15853658536586,-72.13414634146342,-20.731707317073173,0.001953125,-0.0009765625,0.1337890625
858,3.959,IMU0,51.34146341463415,-73.53658536585367,-25.48780487804878,0.0,-0.0205078125,-0.05859375
859,3.959,IMU1,45.91463414634147,-72.19512195121952,-21.097560975609756,0.001953125,-0.0009765625,0.1298828125
860,3.969,IMU0,50.85365853658537,-73.53658536585367,-25.975609756097562,0.0068359375,-0.029296875,-0.0576171875
861,3.969,IMU1,45.243902439024396,-72.19512195121952,-21.402439024390247,0.001953125,-0.001953125,0.130859375
862,3.979,IMU0,50.1829268292683,-73.47560975609757,-26.34146341463415,0.009765625,-0.029296875,-0.0556640625
863,3.979,IMU1,44.81707317073171,-72.25609756097562,-21.82926829268293,0.0009765625,0.0,0.1328125
864,3.989,IMU0,49.75609756097561,-73.17073170731707,-26.52439024390244,0.0166015625,-0.0029296875,-0.0498046875
865,3.989,IMU1,44.57317073170732,-72.25609756097562,-22.195121951219512,0.0029296875,-0.0029296875,0.125
866,3.999,IMU0,49.51219512195122,-73.53658536585367,-26.58536585365854,0.01953125,-0.0009765625,-0.05078125
867,3.999,IMU1,43.78048780487805,-72.31707317073172,-22.5609756097561,0.001953125,-0.001953125,0.130859375
868,4.009,IMU0,48.53658536585366,-73.65853658536587,-27.134146341463417,0.0234375,0.009765625,-0.0576171875
869,4.009,IMU1,43.41463414634147,-72.31707317073172,-22.865853658536587,0.0029296875,-0.0009765625,0.1279296875
870,4.019,IMU0,47.5609756097561,-75.91463414634147,-28.353658536585368,0.1572265625,-0.2021484375,-0.080078125
871,4.019,IMU1,45.97560975609756,-72.43902439024392,-22.926829268292686,0.0810546875,-0.3544921875,0.4462890625
872,4.029,IMU0,119.63414634146342,-114.57317073170732,9.756097560975611,-0.0126953125,0.564453125,-1.4052734375
873,4.029,IMU1,46.951219512195124,-105.54878048780489,1.9512195121951221,-1.5185546875,0.697265625,0.0224609375
874,4.039,IMU0,86.34146341463415,-88.90243902439025,43.65853658536586,0.0703125,0.1962890625,-0.3984375
875,4.039,IMU1,43.53658536585366,-84.08536585365854,-8.475609756097562,-0.8193359375,0.4580078125,0.826171875
876,4.049,IMU0,67.13414634146342,-75.3658536585366,9.634146341463415,0.1337890625,0.1220703125,0.2744140625
877,4.049,IMU1,42.743902439024396,-71.28048780487805,-17.25609756097561,-0.36328125,0.2626953125,0.92578125
878,4.059,IMU0,54.32926829268293,-79.75609756097562,-8.536585365853659,0.1435546875,0.1611328125,0.5234375
879,4.059,IMU1,35.85365853658537,-79.39024390243902,-20.0,-0.2021484375,0.2392578125,0.8447265625
880,4.069,IMU0,47.43902439024391,-80.54878048780489,-15.30487804878049,0.1240234375,0.0849609375,0.2412109375
881,4.069,IMU1,35.426829268292686,-77.5,-19.512195121951223,-0.080078125,0.0927734375,0.529296875
882,4.079,IMU0,40.243902439024396,-69.93902439024392,-23.902439024390247,0.0595703125,0.0400390625,-0.068359375
883,4.079,IMU1,33.78048780487805,-74.02439024390245,-22.926829268292686,-0.029296875,0.0908203125,0.095703125
884,4.089,IMU0,40.73170731707317,-70.73170731707317,-26.34146341463415,-0.0078125,-0.01953125,-0.0537109375
885,4.089,IMU1,36.03658536585366,-73.35365853658537,-23.84146341463415,-0.0693359375,0.001953125,0.099609375
886,4.099,IMU0,44.69512195121952,-73.84146341463415,-27.926829268292686,-0.029296875,-0.05078125,-0.1484375
887,4.099,IMU1,41.58536585365854,-74.45121951219512,-24.512195121951223,-0.08203125,-0.0244140625,0.064453125
888,4.109,IMU0,41.768292682926834,-69.39024390243902,-30.54878048780488,-0.0419921875,-0.0546875,-0.154296875
889,4.109,IMU1,40.0,-70.48780487804879,-25.670731707317074,-0.07421875,-0.0283203125,0.044921875
890,4.119,IMU0,38.963414634146346,-68.65853658536587,-31.707317073170735,-0.0673828125,-0.0107421875,-0.115234375
891,4.119,IMU1,38.04878048780488,-66.15853658536587,-26.158536585365855,-0.0849609375,0.005859375,0.095703125
892,4.129,IMU0,44.268292682926834,-74.69512195121952,-31.34146341463415,-0.0634765625,0.029296875,-0.0693359375
893,4.129,IMU1,39.451219512195124,-68.71951219512195,-26.707317073170735,-0.080078125,0.033203125,0.1376953125
894,4.139,IMU0,44.81707317073171,-76.15853658536587,-30.60975609756098,-0.05859375,0.0,-0.0224609375
895,4.139,IMU1,39.207317073170735,-68.59756097560977,-26.89024390243903,-0.05859375,0.00390625,0.1572265625
896,4.149,IMU0,42.19512195121951,-72.6219512195122,-30.60975609756098,-0.060546875,0.0205078125,-0.0322265625
897,4.149,IMU1,36.03658536585366,-70.0,-27.378048780487806,-0.0478515625,0.0185546875,0.1611328125
898,4.159,IMU0,41.15853658536586,-72.13414634146342,-31.76829268292683,-0.0400390625,0.025390625,-0.0361328125
899,4.159,IMU1,35.1829268292683,-69.93902439024392,-27.621951219512198,-0.0517578125,0.03125,0.1455078125
900,4.169,IMU0,40.670731707317074,-73.78048780487805,-32.19512195121951,-0.00390625,0.009765625,-0.041015625
901,4.169,IMU1,37.43902439024391,-71.28048780487805,-28.170731707317074,-0.0341796875,0.015625,0.1220703125
902,4.179,IMU0,39.268292682926834,-72.6829268292683,-32.6219512195122,-0.0263671875,-0.0068359375,-0.0439453125
903,4.179,IMU1,33.41463414634146,-75.85365853658537,-28.10975609756098,-0.0322265625,0.0,0.1533203125
904,4.189,IMU0,39.390243902439025,-73.35365853658537,-33.65853658536586,-0.0078125,-0.0078125,-0.056640625
905,4.189,IMU1,33.53658536585366,-71.52439024390245,-28.475609756097562,-0.033203125,-0.001953125,0.1044921875
906,4.199,IMU0,38.59756097560976,-74.26829268292684,-33.59756097560976,0.0126953125,-0.01953125,-0.080078125
907,4.199,IMU1,32.43902439024391,-73.35365853658537,-28.719512195121954,-0.0009765625,-0.0048828125,0.0966796875
908,4.209,IMU0,38.10975609756098,-74.51219512195122,-33.53658536585366,-0.0205078125,0.0029296875,-0.083984375
909,4.209,IMU1,32.86585365853659,-77.19512195121952,-29.08536585365854,-0.0185546875,0.013671875,0.1044921875
910,4.219,IMU0,39.451219512195124,-74.26829268292684,-33.71951219512196,0.01171875,-0.0068359375,-0.0361328125
911,4.219,IMU1,32.5,-75.0,-29.32926829268293,-0.0048828125,0.00390625,0.1337890625
912,4.229,IMU0,37.80487804878049,-72.6829268292683,-33.71951219512196,0.0234375,-0.0146484375,-0.0615234375
913,4.229,IMU1,34.08536585365854,-73.71951219512195,-29.75609756097561,0.005859375,-0.0048828125,0.0966796875
914,4.239,IMU0,35.97560975609756,-72.07317073170732,-34.32926829268293,0.01171875,0.0009765625,-0.025390625
915,4.239,IMU1,34.87804878048781,-72.25609756097562,-30.121951219512198,-0.0107421875,0.0029296875,0.1220703125
916,4.249,IMU0,36.21951219512196,-72.01219512195122,-34.75609756097561,0.0283203125,0.0126953125,-0.041015625
917,4.249,IMU1,32.743902439024396,-73.71951219512195,-30.30487804878049,0.0029296875,0.0146484375,0.1123046875
918,4.259,IMU0,37.5,-73.71951219512195,-34.451219512195124,-0.0009765625,-0.001953125,-0.068359375
919,4.259,IMU1,30.60975609756098,-71.52439024390245,-30.487804878048784,-0.005859375,-0.0048828125,0.0908203125
920,4.269,IMU0,37.743902439024396,-74.69512195121952,-34.69512195121951,0.01953125,0.001953125,-0.02734375
921,4.269,IMU1,30.853658536585368,-72.8658536585366,-30.975609756097565,-0.005859375,0.0029296875,0.1298828125
922,4.279,IMU0,37.926829268292686,-75.91463414634147,-35.30487804878049,0.021484375,0.0107421875,-0.0849609375
923,4.279,IMU1,29.39024390243903,-72.98780487804879,-30.975609756097565,-0.00390625,0.0048828125,0.0869140625
924,4.289,IMU0,34.93902439024391,-75.42682926829269,-36.15853658536586,0.013671875,0.0126953125,-0.0537109375
925,4.289,IMU1,29.39024390243903,-72.07317073170732,-31.402439024390247,-0.01171875,0.0078125,0.107421875
926,4.299,IMU0,35.1219512195122,-75.1829268292683,-36.58536585365854,0.01171875,0.009765625,-0.052734375
927,4.299,IMU1,29.02439024390244,-73.35365853658537,-31.58536585365854,-0.0126953125,0.01171875,0.109375
928,4.309,IMU0,34.75609756097561,-75.79268292682927,-37.01219512195122,-0.0029296875,-0.0107421875,-0.0615234375
929,4.309,IMU1,27.865853658536587,-75.85365853658537,-31.89024390243903,-0.0126953125,-0.0009765625,0.087890625
930,4.319,IMU0,34.57317073170732,-76.03658536585367,-37.01219512195122,0.013671875,0.0029296875,-0.0615234375
931,4.319,IMU1,27.25609756097561,-75.54878048780489,-32.19512195121951,-0.0107421875,0.001953125,0.0771484375
932,4.329,IMU0,35.243902439024396,-75.0,-37.19512195121951,0.013671875,0.0068359375,-0.083984375
933,4.329,IMU1,28.719512195121954,-74.63414634146342,-32.6219512195122,-0.015625,0.0048828125,0.072265625
934,4.339,IMU0,35.1219512195122,-75.1829268292683,-37.19512195121951,-0.0009765625,0.005859375,-0.0927734375
935,4.339,IMU1,29.207317073170735,-73.29268292682927,-32.926829268292686,-0.013671875,0.001953125,0.0927734375
936,4.349,IMU0,33.84146341463415,-74.51219512195122,-37.37804878048781,-0.005859375,0.0107421875,-0.0908203125
937,4.349,IMU1,27.987804878048784,-73.29268292682927,-33.109756097560975,-0.02734375,0.0,0.0849609375
938,4.359,IMU0,34.32926829268293,-75.42682926829269,-37.6219512195122,0.0,0.0068359375,-0.0947265625
939,4.359,IMU1,28.353658536585368,-73.41463414634147,-33.53658536585366,-0.025390625,0.0068359375,0.0810546875
940,4.369,IMU0,33.84146341463415,-75.0609756097561,-37.43902439024391,0.0068359375,0.005859375,-0.1123046875
941,4.369,IMU1,27.5609756097561,-74.20731707317074,-33.84146341463415,-0.02734375,0.005859375,0.0751953125
942,4.379,IMU0,32.743902439024396,-74.45121951219512,-38.29268292682927,-0.0068359375,0.0087890625,-0.0849609375
943,4.379,IMU1,27.31707317073171,-72.98780487804879,-34.146341463414636,-0.0322265625,0.0048828125,0.0859375
944,4.389,IMU0,33.41463414634146,-74.63414634146342,-38.53658536585366,-0.0185546875,0.0185546875,-0.0751953125
945,4.389,IMU1,28.963414634146343,-73.04878048780489,-34.57317073170732,-0.0380859375,0.0048828125,0.0849609375
946,4.399,IMU0,32.6219512195122,-74.63414634146342,-39.32926829268293,-0.005859375,0.0068359375,-0.0439453125
947,4.399,IMU1,27.5609756097561,-73.17073170731707,-34.81707317073171,-0.03515625,0.005859375,0.0966796875
948,4.409,IMU0,32.31707317073171,-74.63414634146342,-39.63414634146342,-0.025390625,0.009765625,-0.0654296875
949,4.409,IMU1,27.682926829268297,-73.47560975609757,-35.1219512195122,-0.0419921875,0.009765625,0.103515625
950,4.419,IMU0,31.951219512195124,-74.39024390243902,-40.0,-0.037109375,0.0068359375,-0.0751953125
951,4.419,IMU1,26.82926829268293,-73.65853658536587,-35.487804878048784,-0.0419921875,0.0107421875,0.0966796875
952,4.429,IMU0,31.89024390243903,-74.63414634146342,-40.243902439024396,-0.0224609375,-0.0009765625,-0.06640625
953,4.429,IMU1,26.463414634146343,-73.53658536585367,-35.79268292682927,-0.041015625,0.001953125,0.0859375
954,4.439,IMU0,31.82926829268293,-74.81707317073172,-40.670731707317074,-0.0185546875,0.0,-0.1005859375
955,4.439,IMU1,25.914634146341466,-72.8048780487805,-36.09756097560976,-0.0439453125,0.00390625,0.0703125
956,4.449,IMU0,31.34146341463415,-74.57317073170732,-41.15853658536586,-0.03125,0.0068359375,-0.1005859375
957,4.449,IMU1,26.03658536585366,-73.10975609756098,-36.524390243902445,-0.0419921875,0.005859375,0.0693359375
958,4.459,IMU0,30.853658536585368,-74.51219512195122,-41.03658536585366,-0.0341796875,0.0078125,-0.107421875
959,4.459,IMU1,25.60975609756098,-73.29268292682927,-36.951219512195124,-0.044921875,0.0068359375,0.056640625
960,4.469,IMU0,30.792682926829272,-73.90243902439025,-41.707317073170735,-0.0400390625,-0.00390625,-0.09765625
961,4.469,IMU1,25.792682926829272,-72.6219512195122,-37.31707317073171,-0.0546875,0.005859375,0.064453125
962,4.479,IMU0,30.0609756097561,-74.08536585365854,-42.19512195121951,-0.0439453125,-0.0126953125,-0.119140625
963,4.479,IMU1,25.426829268292686,-72.43902439024392,-37.743902439024396,-0.0498046875,0.005859375,0.0595703125
964,4.489,IMU0,29.512195121951223,-73.90243902439025,-42.6219512195122,-0.052734375,-0.005859375,-0.1298828125
965,4.489,IMU1,25.182926829268293,-71.95121951219512,-38.10975609756098,-0.0517578125,0.01171875,0.0537109375
966,4.499,IMU0,30.426829268292686,-74.08536585365854,-43.10975609756098,-0.04296875,0.001953125,-0.1259765625
967,4.499,IMU1,25.365853658536587,-71.76829268292684,-38.59756097560976,-0.05078125,0.0107421875,0.0546875
968,4.509,IMU0,30.365853658536587,-73.29268292682927,-43.41463414634147,-0.0458984375,0.009765625,-0.1181640625
969,4.509,IMU1,24.939024390243905,-71.64634146341464,-38.963414634146346,-0.0478515625,0.005859375,0.0478515625
970,4.519,IMU0,29.87804878048781,-73.23170731707317,-43.84146341463415,-0.0380859375,-0.0009765625,-0.099609375
971,4.519,IMU1,24.512195121951223,-71.46341463414635,-39.32926829268293,-0.0537109375,0.01171875,0.0537109375
972,4.529,IMU0,29.75609756097561,-73.04878048780489,-44.390243902439025,-0.04296875,-0.001953125,-0.0986328125
973,4.529,IMU1,24.695121951219516,-71.09756097560977,-39.87804878048781,-0.0537109375,0.01171875,0.05078125
974,4.539,IMU0,29.634146341463417,-72.5609756097561,-44.87804878048781,-0.0498046875,-0.0126953125,-0.1005859375
975,4.539,IMU1,24.634146341463417,-70.60975609756098,-40.304878048780495,-0.0556640625,0.005859375,0.052734375
976,4.549,IMU0,29.451219512195124,-72.6219512195122,-45.36585365853659,-0.048828125,-0.0078125,-0.1103515625
977,4.549,IMU1,24.207317073170735,-70.67073170731707,-40.79268292682927,-0.0615234375,0.009765625,0.0517578125
978,4.559,IMU0,29.32926829268293,-71.89024390243902,-46.03658536585366,-0.056640625,0.0009765625,-0.1201171875
979,4.559,IMU1,24.207317073170735,-70.67073170731707,-41.28048780487805,-0.0634765625,0.01171875,0.0498046875
980,4.569,IMU0,29.146341463414636,-71.64634146341464,-46.646341463414636,-0.052734375,-0.00390625,-0.130859375
981,4.569,IMU1,23.902439024390247,-70.1829268292683,-41.82926829268293,-0.068359375,0.009765625,0.0419921875
982,4.579,IMU0,29.146341463414636,-71.28048780487805,-47.07317073170732,-0.0556640625,0.005859375,-0.1181640625
983,4.579,IMU1,23.84146341463415,-69.93902439024392,-42.25609756097561,-0.0732421875,0.0126953125,0.0498046875
984,4.589,IMU0,28.963414634146343,-70.91463414634147,-47.50000000000001,-0.0654296875,0.005859375,-0.111328125
985,4.589,IMU1,23.78048780487805,-69.63414634146342,-42.86585365853659,-0.0751953125,0.01171875,0.0498046875
986,4.599,IMU0,28.84146341463415,-70.85365853658537,-47.804878048780495,-0.072265625,0.0048828125,-0.1171875
987,4.599,IMU1,23.53658536585366,-69.39024390243902,-43.41463414634147,-0.076171875,0.0146484375,0.0439453125
988,4.609,IMU0,28.414634146341466,-71.03658536585367,-48.29268292682927,-0.0634765625,0.017578125,-0.1259765625
989,4.609,IMU1,23.658536585365855,-69.14634146341464,-43.963414634146346,-0.0830078125,0.0126953125,0.044921875
990,4.619,IMU0,28.780487804878053,-70.73170731707317,-48.65853658536586,-0.068359375,0.021484375,-0.125
991,4.619,IMU1,23.414634146341466,-69.02439024390245,-44.451219512195124,-0.08203125,0.0107421875,0.0400390625
992,4.629,IMU0,28.658536585365855,-70.3048780487805,-49.63414634146342,-0.0703125,0.009765625,-0.1318359375
993,4.629,IMU1,23.170731707317074,-68.71951219512195,-45.00000000000001,-0.087890625,0.0126953125,0.044921875
994,4.639,IMU0,28.902439024390247,-70.2439024390244,-50.00000000000001,-0.0859375,0.0068359375,-0.1298828125
995,4.639,IMU1,23.353658536585368,-68.41463414634147,-45.60975609756098,-0.09375,0.0166015625,0.04296875
996,4.649,IMU0,28.84146341463415,-69.81707317073172,-50.487804878048784,-0.09765625,0.01171875,-0.1298828125
997,4.649,IMU1,23.353658536585368,-68.10975609756098,-46.21951219512196,-0.09375,0.0146484375,0.04296875
998,4.659,IMU0,28.353658536585368,-69.57317073170732,-51.03658536585366,-0.0859375,0.029296875,-0.1259765625
999,4.659,IMU1,23.353658536585368,-67.7439024390244,-46.82926829268293,-0.0986328125,0.0166015625,0.04296875
1000,4.669,IMU0,27.987804878048784,-69.20731707317074,-51.585365853658544,-0.08984375,0.017578125,-0.1083984375
1001,4.669,IMU1,23.353658536585368,-67.37804878048782,-47.5609756097561,-0.1005859375,0.015625,0.0478515625
1002,4.679,IMU0,27.987804878048784,-69.14634146341464,-52.37804878048781,-0.099609375,0.0146484375,-0.125
1003,4.679,IMU1,22.98780487804878,-67.07317073170732,-48.170731707317074,-0.1005859375,0.0146484375,0.0478515625
1004,4.689,IMU0,27.865853658536587,-68.96341463414635,-52.86585365853659,-0.0888671875,0.0048828125,-0.1005859375
1005,4.689,IMU1,22.865853658536587,-66.76829268292684,-48.84146341463415,-0.10546875,0.0146484375,0.05859375
1006,4.699,IMU0,27.865853658536587,-68.53658536585367,-53.84146341463415,-0.103515625,0.01171875,-0.1015625
1007,4.699,IMU1,22.80487804878049,-66.34146341463415,-49.51219512195122,-0.109375,0.015625,0.0556640625
1008,4.709,IMU0,27.500000000000004,-68.04878048780489,-54.75609756097561,-0.111328125,0.01953125,-0.1103515625
1009,4.709,IMU1,22.439024390243905,-65.91463414634147,-50.243902439024396,-0.1123046875,0.015625,0.0595703125
1010,4.719,IMU0,27.80487804878049,-67.6219512195122,-55.79268292682927,-0.1044921875,0.0087890625,-0.1025390625
1011,4.719,IMU1,22.378048780487806,-65.48780487804879,-50.97560975609756,-0.1171875,0.017578125,0.06640625
1012,4.729,IMU0,27.31707317073171,-67.01219512195122,-56.524390243902445,-0.115234375,0.00390625,-0.091796875
1013,4.729,IMU1,22.25609756097561,-65.0609756097561,-51.707317073170735,-0.12109375,0.0166015625,0.0654296875
1014,4.739,IMU0,27.25609756097561,-66.46341463414635,-57.6829268292683,-0.111328125,0.0107421875,-0.0947265625
1015,4.739,IMU1,21.890243902439025,-64.63414634146342,-52.43902439024391,-0.1259765625,0.017578125,0.0712890625
1016,4.749,IMU0,26.707317073170735,-66.21951219512195,-58.41463414634147,-0.1123046875,0.025390625,-0.09375
1017,4.749,IMU1,21.76829268292683,-64.20731707317074,-53.29268292682927,-0.130859375,0.01953125,0.0693359375
1018,4.759,IMU0,26.402439024390247,-65.91463414634147,-58.90243902439025,-0.1318359375,0.0185546875,-0.115234375
1019,4.759,IMU1,21.52439024390244,-63.90243902439025,-54.146341463414636,-0.1337890625,0.017578125,0.0615234375
1020,4.769,IMU0,25.60975609756098,-65.73170731707317,-59.69512195121952,-0.1279296875,0.0087890625,-0.09765625
1021,4.769,IMU1,21.097560975609756,-63.47560975609757,-55.00000000000001,-0.1396484375,0.0205078125,0.0673828125
1022,4.779,IMU0,25.670731707317074,-65.60975609756098,-60.73170731707317,-0.1328125,0.0087890625,-0.0927734375
1023,4.779,IMU1,20.914634146341466,-63.29268292682927,-55.97560975609757,-0.1484375,0.021484375,0.0693359375
1024,4.789,IMU0,25.48780487804878,-65.3048780487805,-61.40243902439025,-0.14453125,0.0166015625,-0.0966796875
1025,4.789,IMU1,20.54878048780488,-63.17073170731708,-56.89024390243903,-0.1533203125,0.021484375,0.07421875
1026,4.799,IMU0,24.939024390243905,-65.3658536585366,-62.560975609756106,-0.1455078125,0.0302734375,-0.0888671875
1027,4.799,IMU1,20.182926829268293,-62.926829268292686,-57.926829268292686,-0.158203125,0.0224609375,0.08203125
1028,4.809,IMU0,24.695121951219516,-65.0,-63.35365853658537,-0.1494140625,0.0185546875,-0.0888671875
1029,4.809,IMU1,19.878048780487806,-62.743902439024396,-58.963414634146346,-0.1591796875,0.0234375,0.0791015625
1030,4.819,IMU0,24.26829268292683,-64.81707317073172,-64.75609756097562,-0.150390625,0.0224609375,-0.0888671875
1031,4.819,IMU1,19.32926829268293,-62.6219512195122,-59.93902439024391,-0.1591796875,0.0224609375,0.08203125
1032,4.829,IMU0,23.414634146341466,-64.57317073170732,-66.28048780487805,-0.1474609375,0.021484375,-0.0732421875
1033,4.829,IMU1,18.963414634146343,-62.31707317073171,-60.97560975609757,-0.158203125,0.0234375,0.087890625
1034,4.839,IMU0,22.865853658536587,-64.69512195121952,-67.31707317073172,-0.1474609375,0.0302734375,-0.0791015625
1035,4.839,IMU1,18.597560975609756,-62.07317073170732,-61.95121951219513,-0.1572265625,0.0234375,0.0869140625
1036,4.849,IMU0,21.890243902439025,-64.20731707317074,-68.65853658536587,-0.1494140625,0.0185546875,-0.0703125
1037,4.849,IMU1,18.04878048780488,-61.768292682926834,-62.926829268292686,-0.1591796875,0.0244140625,0.08984375
1038,4.859,IMU0,21.76829268292683,-63.84146341463415,-69.51219512195122,-0.142578125,0.0322265625,-0.080078125
1039,4.859,IMU1,17.5,-61.524390243902445,-63.90243902439025,-0.1630859375,0.0263671875,0.0859375
1040,4.869,IMU0,21.52439024390244,-63.65853658536586,-70.54878048780489,-0.1484375,0.029296875,-0.091796875
1041,4.869,IMU1,16.951219512195124,-61.28048780487806,-64.81707317073172,-0.1630859375,0.0263671875,0.0810546875
1042,4.879,IMU0,20.48780487804878,-63.65853658536586,-70.67073170731707,-0.1591796875,0.0234375,-0.0927734375
1043,4.879,IMU1,16.219512195121954,-61.03658536585366,-65.79268292682927,-0.1650390625,0.02734375,0.083984375
1044,4.889,IMU0,20.48780487804878,-63.35365853658537,-70.85365853658537,-0.1298828125,0.0205078125,-0.0830078125
1045,4.889,IMU1,15.914634146341465,-60.60975609756098,-66.70731707317074,-0.166015625,0.029296875,0.0810546875
1046,4.899,IMU0,19.81707317073171,-62.926829268292686,-72.13414634146342,-0.1416015625,0.0302734375,-0.0732421875
1047,4.899,IMU1,15.30487804878049,-60.243902439024396,-67.6219512195122,-0.1640625,0.029296875,0.083984375
1048,4.909,IMU0,18.902439024390244,-62.560975609756106,-72.92682926829269,-0.1455078125,0.0322265625,-0.08203125
1049,4.909,IMU1,14.695121951219514,-59.87804878048781,-68.53658536585367,-0.1650390625,0.03125,0.08984375
1050,4.919,IMU0,18.353658536585368,-62.19512195121952,-73.90243902439025,-0.1533203125,0.0302734375,-0.0732421875
1051,4.919,IMU1,14.207317073170733,-59.51219512195122,-69.39024390243902,-0.16796875,0.0302734375,0.09375
1052,4.929,IMU0,17.5,-61.34146341463415,-74.63414634146342,-0.1533203125,0.0322265625,-0.080078125
1053,4.929,IMU1,13.597560975609758,-59.024390243902445,-70.2439024390244,-0.1708984375,0.0302734375,0.1064453125
1054,4.939,IMU0,16.402439024390244,-61.09756097560976,-75.73170731707317,-0.1630859375,0.046875,-0.0458984375
1055,4.939,IMU1,12.865853658536587,-58.47560975609757,-71.09756097560977,-0.1748046875,0.0322265625,0.1181640625
1056,4.949,IMU0,15.487804878048783,-60.85365853658537,-76.52439024390245,-0.1728515625,0.0439453125,-0.0302734375
1057,4.949,IMU1,11.951219512195124,-58.10975609756098,-72.01219512195122,-0.173828125,0.033203125,0.1259765625
1058,4.959,IMU0,15.182926829268293,-60.304878048780495,-77.5609756097561,-0.1640625,0.044921875,-0.01953125
1059,4.959,IMU1,10.975609756097562,-57.6829268292683,-72.8658536585366,-0.17578125,0.033203125,0.1298828125
1060,4.969,IMU0,14.51219512195122,-59.81707317073171,-78.41463414634147,-0.17578125,0.0283203125,-0.0380859375
1061,4.969,IMU1,10.24390243902439,-57.13414634146342,-73.71951219512195,-0.1787109375,0.0361328125,0.123046875
1062,4.979,IMU0,13.719512195121952,-59.085365853658544,-79.39024390243902,-0.169921875,0.0390625,-0.052734375
1063,4.979,IMU1,9.451219512195122,-56.585365853658544,-74.63414634146342,-0.1806640625,0.0390625,0.1123046875
1064,4.989,IMU0,13.353658536585368,-58.35365853658537,-80.73170731707317,-0.18359375,0.0341796875,-0.046875
1065,4.989,IMU1,8.841463414634147,-55.97560975609757,-75.54878048780489,-0.18359375,0.0419921875,0.099609375
1066,4.999,IMU0,12.926829268292684,-57.865853658536594,-81.21951219512196,-0.185546875,0.03125,-0.0693359375
1067,4.999,IMU1,8.292682926829269,-55.426829268292686,-76.52439024390245,-0.1884765625,0.04296875,0.0888671875
1068,5.009,IMU0,12.195121951219512,-57.6219512195122,-81.95121951219512,-0.189453125,0.0361328125,-0.076171875
1069,5.009,IMU1,7.8048780487804885,-54.87804878048781,-77.5,-0.1923828125,0.04296875,0.0859375
1070,5.019,IMU0,11.341463414634147,-56.89024390243903,-83.04878048780489,-0.177734375,0.0283203125,-0.0869140625
1071,5.019,IMU1,7.195121951219513,-54.32926829268293,-78.41463414634147,-0.1923828125,0.044921875,0.091796875
1072,5.029,IMU0,10.792682926829269,-56.585365853658544,-84.39024390243902,-0.1689453125,0.0322265625,-0.0625
1073,5.029,IMU1,6.646341463414635,-53.71951219512196,-79.32926829268294,-0.193359375,0.046875,0.1064453125
1074,5.039,IMU0,10.121951219512196,-56.09756097560976,-84.81707317073172,-0.185546875,0.037109375,-0.0615234375
1075,5.039,IMU1,5.853658536585367,-53.17073170731708,-80.2439024390244,-0.1962890625,0.046875,0.1259765625
1076,5.049,IMU0,8.841463414634147,-55.426829268292686,-85.67073170731707,-0.173828125,0.037109375,-0.04296875
1077,5.049,IMU1,4.878048780487806,-52.5609756097561,-81.15853658536587,-0.1962890625,0.0478515625,0.14453125
1078,5.059,IMU0,7.926829268292684,-54.75609756097561,-86.34146341463415,-0.1767578125,0.0419921875,-0.0126953125
1079,5.059,IMU1,4.085365853658537,-51.89024390243903,-82.07317073170732,-0.1953125,0.046875,0.1572265625
1080,5.069,IMU0,6.890243902439025,-54.024390243902445,-87.50000000000001,-0.17578125,0.048828125,-0.017578125
1081,5.069,IMU1,2.7439024390243905,-51.34146341463415,-82.98780487804879,-0.1962890625,0.046875,0.1611328125
1082,5.079,IMU0,5.609756097560976,-53.41463414634147,-88.35365853658537,-0.1748046875,0.0390625,-0.0224609375
1083,5.079,IMU1,1.9512195121951221,-50.670731707317074,-83.84146341463415,-0.19921875,0.0498046875,0.1533203125
1084,5.089,IMU0,4.75609756097561,-52.926829268292686,-89.39024390243904,-0.1875,0.037109375,-0.0341796875
1085,5.089,IMU1,1.0975609756097562,-50.0609756097561,-84.75609756097562,-0.2060546875,0.052734375,0.13671875
1086,5.099,IMU0,4.085365853658537,-52.43902439024391,-90.60975609756099,-0.193359375,0.0419921875,-0.0576171875
