start,len,seq,sys_id,comp_id,msg_id,timestamp,pressure_ada,pressure_digi,pressure_dpl,airspeed_pitot,msl_altitude,ada_vert_speed,ada_vert_accel,acc_x,acc_y,acc_z,gyro_x,gyro_y,gyro_z,mag_x,mag_y,mag_z,gps_lat,gps_lon,gps_alt,vbat,vsupply_5v,temperature,ab_angle,ab_estimated_cd,nas_x,nas_y,nas_z,nas_vx,nas_vy,nas_vz,nas_roll,nas_pitch,nas_yaw,nas_bias0,nas_bias1,nas_bias2,ada_state,fmm_state,dpl_state,ab_state,nas_state,gps_fix,pin_launch,pin_nosecone,servo_sensor,logger_error
254,162,0,1,1,180,2762,0,85787.3125,89800.65625,96.25305939,0,0,0,9.735050201,0.08973882347,-1.151921034,0.003043018747,0.004672613926,0.001413424034,-28.15494156,-8.298948288,-6.859325886,0,0,0,0,0.1303390115,32.31000137,0,0,0,0,0,0,0,0,0,0,0,0,0,0,0,2,1,1,0,0,1,1,0,0
254,162,1,1,1,180,3012,0,85787.46094,89861.09375,96.35720825,0,0,0,9.72249794,0.08609936386,-1.166481018,0.001241596066,0.005675868131,0.0006772342022,-28.76457977,-8.157323837,-6.789816856,0,0,0,0,0.1303390115,32.34999847,0,0,0,0,0,0,0,0,0,0,0,0,0,0,0,2,1,1,0,0,1,1,0,0
254,162,2,1,1,180,3263,0,85788.08594,89800.65625,96.35691833,0,0,0,9.735817909,0.06207803264,-1.13964963,-0.0002403088874,0.005200970918,0.0010642251,-28.51427841,-8.228144646,-6.859753609,0,0,0,0,0.1305260062,32.38000107,0,0,0,0,0,0,0,0,0,0,0,0,0,0,0,2,1,1,0,0,1,1,0,0
254,162,3,1,1,180,3513,0,85786.78125,89810.71875,96.2537384,0,0,0,9.743233681,0.09018804878,-1.148794174,0.001213881886,0.005420897622,0.000947825436,-28.26040268,-8.086510658,-6.441452503,0,0,0,0,0.130152002,32.40000153,0,0,0,0,0,0,0,0,0,0,0,0,0,0,0,2,1,1,0,0,1,1,0,0
254,162,4,1,1,180,3763,0,85788.80469,89820.80469,96.46053314,0,0,0,9.748143196,0.09048758447,-1.135245442,0.002311364049,0.004855527543,0.0003159418702,-28.29098892,-8.157331467,-6.86010313,0,0,0,12.53128242,0.1303390115,32.41999817,0,0,0,0,0,0,0,0,0,0,0,0,0,0,0,2,1,1,0,0,1,1,0,0
254,162,5,1,1,180,4013,0,85786.44531,89881.25,95.83576965,0,0,0,9.771499634,0.06952220947,-1.144476533,0.007965059951,0.005005184095,6.651406875e-05,-28.4842968,-8.228153229,-6.790373325,0,0,0,12.53128242,0.1303390115,32.43000031,0,0,0,0,0,0,0,0,0,0,0,0,0,0,0,2,1,1,0,0,1,1,0,0
254,162,6,1,1,180,4263,0,85787.74219,89901.39844,96.46110535,0,0,0,9.753349304,0.09887373447,-1.134649873,0.002860105364,0.0045894715,0.001114110812,-28.50136185,-8.794729233,-7.13920927,0,0,0,12.53128242,0.1303390115,32.43999863,0,0,0,0,0,0,0,0,0,0,0,0,0,0,0,2,1,1,0,0,1,1,0,0
254,162,7,1,1,180,4513,0,85790.08594,89891.3125,96.56504822,0,0,0,9.75349617,0.06278333813,-1.163683653,-0.0003159418702,0.00533775473,0.002278107218,-28.04012108,-8.582269669,-6.581302643,0,0,0,12.53128242,0.1303390115,32.45000076,0,0,0,0,0,0,0,0,0,0,0,0,0,0,0,2,1,1,0,0,1,1,0,0
254,162,8,1,1,180,4764,0,85785.92188,89901.39844,96.66861725,0,0,0,9.744720459,0.09498013556,-1.16413033,0.00981082581,0.005620439537,0.00197879388,-28.52533531,-8.440627098,-6.651107788,0,0,0,12.51538372,0.1305260062,32.45000076,0,0,0,0,0,0,0,0,0,0,0,0,0,0,0,2,1,1,0,0,1,1,0,0
254,162,9,1,1,180,5014,0,85785.89062,89911.46094,96.77352905,0,0,0,9.754241943,0.06607790291,-1.154452205,0.007499461062,0.004705870524,0.002261478687,-28.81723213,-8.086512566,-6.720896244,0,0,0,12.51538372,0.1303390115,32.45999908,0,0,0,0,0,0,0,0,0,0,0,0,0,0,0,2,1,1,0,0,1,1,0,0
254,162,10,1,1,180,5264,0,85789.19531,89901.39844,96.14820862,0,0,0,9.763465881,0.06877344847,-1.166214705,0.003841187572,0.004922041669,0.0008314259467,-28.15886497,-8.157337189,-6.790683746,0,0,0,12.51538372,0.1303390115,32.45999908,0,0,0,0,0,0,0,0,0,0,0,0,0,0,0,2,1,1,0,0,1,1,0,0
254,162,11,1,1,180,5514,0,85785.64062,89921.53125,96.04684448,0,0,0,9.753645897,0.074763529,-1.161598921,-0.002095193136,0.004739128053,0.002594048856,-28.44399261,-8.228158951,-6.930182934,0,0,0,12.51538372,0.1303390115,32.47000122,0,0,0,0,0,0,0,0,0,0,0,0,0,0,0,2,1,1,0,0,1,1,0,0
254,162,12,1,1,180,5764,0,85783.6875,89911.46094,96.87812042,0,0,0,9.757555962,0.108462438,-1.158828735,0.001709210104,0.005627494305,0.001693085767,-28.6374855,-8.369807243,-6.651204109,0,0,0,12.50196552,0.130152002,32.47999954,0,0,0,0,0,0,0,0,0,0,0,0,0,0,0,2,1,1,0,0,1,1,0,0
254,162,13,1,1,180,6014,0,85784.17188,89921.53125,96.87684631,0,0,0,9.7647686,0.06751187146,-1.147134185,0.000564361806,0.005176005419,0.001241596183,-27.98249435,-7.944865704,-6.930261612,0,0,0,12.50196552,0.1305260062,32.47999954,0,0,0,0,0,0,0,0,0,0,0,0,0,0,0,2,1,1,0,0,1,1,0,0
254,162,14,1,1,180,6264,0,85786.4375,89901.39844,96.87684631,0,0,0,9.742728233,0.07846388966,-1.134578109,0.0003604633093,0.005544270389,0.0007895867457,-28.00281525,-8.228164673,-6.686250687,0,0,0,12.50196552,0.1303390115,32.49000168,0,0,0,0,0,0,0,0,0,0,0,0,0,0,0,2,1,1,0,0,1,1,0,0
254,162,15,1,1,180,6514,0,85784.39062,89921.53125,96.2543869,0,0,0,9.754837036,0.09872398525,-1.138074398,0.01564743742,0.005703581963,0.0001995422062,-28.71071053,-8.121927261,-6.581595898,0,0,0,12.50196552,0.1303390115,32.49000168,0,0,0,0,0,0,0,0,0,0,0,0,0,0,0,2,1,1,0,0,1,1,0,0
254,162,16,1,1,180,6764,0,85789.53906,89921.53125,96.87534332,0,0,0,9.767780304,0.07521278411,-1.177530408,0.007499461994,0.004522956908,0.003541874699,-28.56300735,-8.228162766,-6.790818691,0,0,0,12.48825455,0.1303390115,32.49000168,0,0,0,0,0,0,0,0,0,0,0,0,0,0,0,2,1,1,0,0,1,1,0,0
254,162,17,1,1,180,7014,0,85786.24219,89911.46094,96.25354767,0,0,0,9.781648636,0.05008612946,-1.126776695,-0.01404454745,0.004627767019,0.002015578095,-28.38308907,-8.157339096,-6.442122459,0,0,0,12.48825455,0.1305260062,32.5,0,0,0,0,0,0,0,0,0,0,0,0,0,0,0,2,1,1,0,0,1,1,0,0
254,162,18,1,1,180,7264,0,85787.67188,89871.17969,96.25077057,0,0,0,9.802595139,0.217328161,-1.113209605,-0.01285384782,0.004639356863,-0.002244849689,-28.66150093,-8.086513519,-6.860589504,0,0,0,12.48825455,0.1305260062,32.5,0,0,0,0,0,0,0,0,0,0,0,0,0,0,0,2,1,1,0,0,1,1,0,0
254,162,19,1,1,180,7514,0,85790.01562,89931.60938,97.08437347,0,0,0,9.746356964,0.09318313748,-1.133458495,-0.06549973041,0.002693820279,-0.001529823756,-28.4815979,-8.15734005,-6.581643105,0,0,0,12.48825455,0.1303390115,32.50999832,0,0,0,0,0,0,0,0,0,0,0,0,0,0,0,2,1,1,0,0,1,1,0,0
254,162,20,1,1,180,7764,0,85785.21094,89931.60938,97.08339691,0,0,0,9.770159721,0.07880684733,-1.209839582,-0.0389938727,0.00382455904,0.002577420091,-28.66147232,-7.94486475,-6.860589504,0,0,0,12.47619343,0.1303390115,32.50999832,0,0,0,0,0,0,0,0,0,0,0,0,0,0,0,2,1,1,0,0,1,1,0,0
254,162,21,1,1,180,8014,0,85783.91406,89941.67188,96.46286011,0,0,0,9.760043144,0.076261051,-1.169788241,-0.004506328609,0.002760333708,0.001297024428,-28.47136307,-8.086514473,-7.069839954,0,0,0,12.47619343,0.1303390115,32.52000046,0,0,0,0,0,0,0,0,0,0,0,0,0,0,0,2,1,1,0,0,1,1,0,0
254,162,22,1,1,180,8264,0,85787.92969,89941.67188,96.97983551,0,0,0,9.774624825,0.08869052678,-1.160556793,0.001463309512,0.004506328609,-0.0007150262827,-28.29485512,-8.157341003,-6.581662178,0,0,0,12.47619343,0.1303390115,32.52000046,0,0,0,0,0,0,0,0,0,0,0,0,0,0,0,2,1,1,0,0,1,1,0,0
254,162,23,1,1,180,8514,0,85788.5625,89931.60938,97.08509827,0,0,0,9.781765938,0.08000490069,-1.142689824,-0.01119099278,0.00480564218,0.0009478255524,-28.56645584,-8.086514473,-6.721088886,0,0,0,12.47619343,0.1303390115,32.52000046,0,0,0,0,0,0,0,0,0,0,0,0,0,0,0,2,1,1,0,0,1,1,0,0
254,162,24,1,1,180,8764,0,85783.79688,89871.17969,97.18831635,0,0,0,9.765696526,0.06458034366,-1.163236618,-0.02534186468,0.004240272101,0.001879022573,-28.29831314,-8.298991203,-6.930438519,0,0,0,12.46256733,0.1303390115,32.52000046,0,0,0,0,0,0,0,0,0,0,0,0,0,0,0,2,1,1,0,0,1,1,0,0
254,162,25,1,1,180,9014,0,85789.75781,89941.67188,97.29065704,0,0,0,9.754958153,0.0936505571,-1.178897142,-0.008417054079,0.004692265298,0.0002257446322,-27.92809486,-7.944865227,-6.790993214,0,0,0,12.46256733,0.1303390115,32.52999878,0,0,0,0,0,0,0,0,0,0,0,0,0,0,0,2,1,1,0,0,1,1,0,0
254,162,26,1,1,180,9264,0,85787.36719,89941.67188,97.28980255,0,0,0,9.773433685,0.06907295436,-1.191526055,0.01508206688,0.005271240603,0.0008480544202,-28.10470009,-8.086515427,-6.790915489,0,0,0,12.46256733,0.1305260062,32.54000092,0,0,0,0,0,0,0,0,0,0,0,0,0,0,0,2,1,1,0,0,1,1,0,0
254,162,27,1,1,180,9514,0,85787.10938,89941.67188,97.0821991,0,0,0,9.778492928,0.03088605031,-1.160854459,-0.00946162641,0.004024101421,8.314252773e-05,-28.58699417,-8.015690804,-6.860704899,0,0,0,12.46256733,0.1303390115,32.54000092,0,0,0,0,0,0,0,0,0,0,0,0,0,0,0,2,1,1,0,0,1,1,0,0
254,162,28,1,1,180,9764,0,85786.45312,89951.75,97.18775177,0,0,0,9.756175995,0.09872398525,-1.202841997,-0.008314258419,0.004606099334,0.001313653076,-28.58007812,-7.944865227,-6.860664368,0,0,0,12.44962215,0.1303390115,32.54000092,0,0,0,0,0,0,0,0,0,0,0,0,0,0,0,2,1,1,0,0,1,1,0,0
254,162,29,1,1,180,10014,0,85783.59375,89951.75,97.08499908,0,0,0,9.775814056,0.06487987936,-1.117229581,-0.01508206408,0.003641645657,1.662853174e-05,-28.39338684,-8.086515427,-6.581679344,0,0,0,12.44962215,0.130152002,32.54000092,0,0,0,0,0,0,0,0,0,0,0,0,0,0,0,2,1,1,0,0,1,1,0,0
254,162,30,1,1,180,10264,0,85786.53125,89881.25,97.18768311,0,0,0,9.779384613,0.04885634407,-1.12824738,-0.01513195131,0.004373300355,0.0006651406875,-28.88261986,-8.369818687,-6.930515766,0,0,0,12.44962215,0.1303390115,32.54999924,0,0,0,0,0,0,0,0,0,0,0,0,0,0,0,2,1,1,0,0,1,1,0,0
254,162,31,1,1,180,10514,0,85786.64844,89891.3125,97.90753937,0,0,0,9.764657974,0.06712614,-1.096682549,0.009129056707,0.004556213971,0.001380167087,-28.60410881,-8.228169441,-7.00030899,0,0,0,12.44962215,0.1303390115,32.54999924,0,0,0,0,0,0,0,0,0,0,0,0,0,0,0,2,1,1,0,0,1,1,0,0
254,162,32,1,1,180,10764,0,85788.46875,89931.60938,97.18833923,0,0,0,9.76554966,0.03073623776,-1.118420839,0.02485962957,0.005803352222,0.0008813114837,-28.87570381,-8.582294464,-6.930475712,0,0,0,12.43949223,0.1305260062,32.56000137,0,0,0,0,0,0,0,0,0,0,0,0,0,0,0,2,1,1,0,0,1,1,0,0
254,162,33,1,1,180,11014,0,85785.96094,89891.3125,97.70192719,0,0,0,9.772541046,0.03433033451,-1.162194848,0.0004655984812,0.004140500911,0.002527534263,-28.41392517,-8.086517334,-6.860806465,0,0,0,12.43949223,0.1303390115,32.56000137,0,0,0,0,0,0,0,0,0,0,0,0,0,0,0,2,1,1,0,0,1,1,0,0
254,162,34,1,1,180,11264,0,85785.00781,89961.82031,97.59934998,0,0,0,9.774921417,0.08389846981,-1.140903354,0.002810220001,0.004522956442,0.002278106986,-28.695858,-8.157341957,-7.000287533,0,0,0,12.43949223,0.1303390115,32.56000137,0,0,0,0,0,0,0,0,0,0,0,0,0,0,0,2,1,1,0,0,1,1,0,0
254,162,35,1,1,180,11514,0,85784.60156,89921.53125,97.39311218,0,0,0,9.79322052,0.08494673669,-1.159961224,-0.007632490247,0.003924330696,0.0004489700077,-28.30852509,-8.121928215,-7.000247955,0,0,0,12.43949223,0.1303390115,32.56999969,0,0,0,0,0,0,0,0,0,0,0,0,0,0,0,2,1,1,0,0,1,1,0,0
254,162,36,1,1,180,11764,0,85787.11719,89921.53125,97.18678284,0,0,0,9.77849102,0.07371528447,-1.145816684,-0.007665746845,0.005204726942,-3.325701982e-05,-28.78748894,-8.440645218,-6.721259117,0,0,0,12.42938709,0.1305260062,32.56999969,0,0,0,0,0,0,0,0,0,0,0,0,0,0,0,2,1,1,0,0,1,1,0,0
254,162,37,1,1,180,12014,0,85784.47656,89971.89062,97.59887695,0,0,0,9.771203041,0.05439719185,-1.170681477,0.009810824879,0.005969638936,-0.0004655984521,-28.77717209,-8.086515427,-6.860704899,0,0,0,12.42938709,0.1305260062,32.58000183,0,0,0,0,0,0,0,0,0,0,0,0,0,0,0,2,1,1,0,0,1,1,0,0
254,162,38,1,1,180,12264,0,85785.00781,89921.53125,97.49692535,0,0,0,9.779682159,0.04451348633,-1.135543227,0.006668036804,0.005321125966,0.001430052682,-28.2202816,-8.228165627,-6.651527405,0,0,0,12.42938709,0.1303390115,32.58000183,0,0,0,0,0,0,0,0,0,0,0,0,0,0,0,2,1,1,0,0,1,1,0,0
254,162,39,1,1,180,12514,0,85785.44531,89891.3125,97.80427551,0,0,0,9.781275749,0.07073470205,-1.119054675,0.00252324366,0.004548704252,0.002385924337,-28.40018845,-8.01568985,-6.930475712,0,0,0,12.42938709,0.1303390115,32.58000183,0,0,0,0,0,0,0,0,0,0,0,0,0,0,0,2,1,1,0,0,1,1,0,0
254,162,40,1,1,180,12764,0,85786.27344,89911.46094,97.39208221,0,0,0,9.772244453,0.07101973891,-1.111869574,0.002361249411,0.004423186183,-0.002294735517,-28.86883163,-8.51146698,-6.860685349,0,0,0,12.42026901,0.1303390115,32.59000015,0,0,0,0,0,0,0,0,0,0,0,0,0,0,0,2,1,1,0,0,1,1,0,0
254,162,41,1,1,180,13014,0,85785.63281,89911.46094,97.49663544,0,0,0,9.764953613,0.07835759223,-1.175743699,-0.002594049089,0.004689243622,-0.001396795386,-27.83638191,-8.086514473,-6.512003422,0,0,0,12.42026901,0.1305260062,32.59000015,0,0,0,0,0,0,0,0,0,0,0,0,0,0,0,2,1,1,0,0,1,1,0,0
254,162,42,1,1,180,13264,0,85784.47656,89901.39844,97.39425659,0,0,0,9.759151459,0.07910635322,-1.163236618,-0.01438366808,0.003758045379,0.001646223362,-28.70606041,-8.157342911,-6.721338272,0,0,0,12.42026901,0.1305260062,32.59000015,0,0,0,0,0,0,0,0,0,0,0,0,0,0,0,2,1,1,0,0,1,1,0,0
254,162,43,1,1,180,13514,0,85785.05469,89901.39844,97.70162201,0,0,0,9.778343201,0.07596154511,-1.191079497,-0.002677191515,0.004007472657,0.001330281491,-28.50901413,-8.157341957,-6.581793785,0,0,0,12.42026901,0.1305260062,32.59000015,0,0,0,0,0,0,0,0,0,0,0,0,0,0,0,2,1,1,0,0,1,1,0,0
254,162,44,1,1,180,13764,0,85786.15625,89911.46094,97.49617004,0,0,0,9.767186165,0.0755123198,-1.15609026,-0.002527535195,0.004905412439,-0.0003325703437,-28.32557678,-8.15734005,-6.860842705,0,0,0,12.41112518,0.1303390115,32.59999847,0,0,0,0,0,0,0,0,0,0,0,0,0,0,0,2,1,1,0,0,1,1,0,0
254,162,45,1,1,180,14014,0,85786.6875,89911.46094,98.21373749,0,0,0,9.77878952,0.05769171938,-1.151921153,0.008330888115,0.006169180851,0.0007981689414,-28.4241581,-8.298995972,-6.512098789,0,0,0,12.41112518,0.1305260062,32.59999847,0,0,0,0,0,0,0,0,0,0,0,0,0,0,0,2,1,1,0,0,1,1,0,0
254,162,46,1,1,180,14264,0,85785.07812,89971.89062,98.1128006,0,0,0,9.770011902,0.02639338188,-1.177828193,0.01433378272,0.005138212815,0.001679480425,-28.61445808,-8.157342911,-6.860859394,0,0,0,12.41112518,0.1303390115,32.59999847,0,0,0,0,0,0,0,0,0,0,0,0,0,0,0,2,1,1,0,0,1,1,0,0
254,162,47,1,1,180,14514,0,85782.82812,89901.39844,98.21546936,0,0,0,9.767780304,0.02983772196,-1.156090379,-0.01077527832,0.004473071545,0.000581998087,-28.6924057,-8.298993111,-6.721261024,0,0,0,12.41112518,0.1305260062,32.61000061,0,0,0,0,0,0,0,0,0,0,0,0,0,0,0,2,1,1,0,0,1,1,0,0
254,162,48,1,1,180,14764,0,85786.13281,89971.89062,98.11167145,0,0,0,9.739214897,0.08764228225,-1.162939072,-0.009045913815,0.004406557884,0.0008314260631,-28.4139061,-8.228167534,-6.581793308,0,0,0,12.40291977,0.1303390115,32.61000061,0,0,0,0,0,0,0,0,0,0,0,0,0,0,0,2,1,1,0,0,1,1,0,0
254,162,49,1,1,180,15014,0,85783.01562,89981.96875,97.90643311,0,0,0,9.774147987,0.07172314078,-1.130530596,-0.00959415175,0.005885488354,0.0003386171011,-28.33588409,-8.228170395,-6.721394062,0,0,0,12.40291977,0.1305260062,32.61000061,0,0,0,0,0,0,0,0,0,0,0,0,0,0,0,2,1,1,0,0,1,1,0,0
254,162,50,1,1,180,15264,0,85783.83594,89971.89062,98.11273956,0,0,0,9.763307571,0.04878383875,-1.134885311,-0.01053926442,0.004342725035,0.0001888140832,-27.95528221,-8.157342911,-6.930650711,0,0,0,12.40291977,0.1303390115,32.61999893,0,0,0,0,0,0,0,0,0,0,0,0,0,0,0,2,1,1,0,0,1,1,0,0
254,162,51,1,1,180,15514,0,85786.70312,89971.89062,98.21373749,0,0,0,9.766532898,0.0577496998,-1.152406096,0.006797309034,0.004892002326,0.001973965904,-28.22702599,-8.369819641,-6.442306519,0,0,0,12.40291977,0.1305260062,32.61999893,0,0,0,0,0,0,0,0,0,0,0,0,0,0,0,2,1,1,0,0,1,1,0,0
254,162,52,1,1,180,15764,0,85785.09375,89981.96875,97.59862518,0,0,0,9.742487907,0.06308281422,-1.169341087,0.0105591109,0.006119294558,0.0008480544202,-28.60070801,-8.440646172,-6.721278667,0,0,0,12.39416122,0.1303390115,32.61999893,0,0,0,0,0,0,0,0,0,0,0,0,0,0,0,2,1,1,0,0,1,1,0,0
254,162,53,1,1,180,16014,0,85787.70312,89971.89062,98.21326447,0,0,0,9.783848763,0.03837362677,-1.134798884,0.005337754264,0.005903123412,0.0007316548144,-28.71301079,-8.01568985,-6.651621819,0,0,0,12.39416122,0.1305260062,32.63000107,0,0,0,0,0,0,0,0,0,0,0,0,0,0,0,2,1,1,0,0,1,1,0,0
254,162,54,1,1,180,16264,0,85785.34375,89981.96875,97.59936523,0,0,0,9.763466835,0.07835759223,-1.128098607,0.003408846678,0.005354383029,-0.0001662853028,-28.91016579,-8.334411621,-6.686536312,0,0,0,12.39416122,0.1303390115,32.63000107,0,0,0,0,0,0,0,0,0,0,0,0,0,0,0,2,1,1,0,0,1,1,0,0
254,162,55,1,1,180,16514,0,85787.04688,89981.96875,98.2144165,0,0,0,9.793667793,0.03777461499,-1.152665496,0.01621280424,0.005986265838,0.0008979399572,-28.47170448,-8.121928215,-6.686480522,0,0,0,12.39416122,0.1303390115,32.63000107,0,0,0,0,0,0,0,0,0,0,0,0,0,0,0,2,1,1,0,0,1,1,0,0
254,162,56,1,1,180,16764,0,85782.64062,89981.96875,98.11187744,0,0,0,9.744273186,0.06937243044,-1.150878906,0.01130739227,0.004705871455,0.0009644540842,-28.22706413,-7.732385635,-6.860822201,0,0,0,12.3865633,0.1303390115,32.63000107,0,0,0,0,0,0,0,0,0,0,0,0,0,0,0,2,1,1,0,0,1,1,0,0
254,162,57,1,1,180,17014,0,85787.26562,89981.96875,98.00894928,0,0,0,9.763762474,0.05649372935,-1.159067869,0.008713345043,0.004406556953,0.002128450433,-28.23728561,-8.08651638,-6.791128159,0,0,0,12.3865633,0.1303390115,32.63999939,0,0,0,0,0,0,0,0,0,0,0,0,0,0,0,2,1,1,0,0,1,1,0,0
254,162,58,1,1,180,17264,0,85787.61719,89911.46094,97.59997559,0,0,0,9.76480484,0.08449748158,-1.166810274,0.01538137812,0.005437525455,0.001330281491,-28.51241493,-8.369820595,-6.860823631,0,0,0,12.3865633,0.130152002,32.63999939,0,0,0,0,0,0,0,0,0,0,0,0,0,0,0,2,1,1,0,0,1,1,0,0
254,162,59,1,1,180,17514,0,85785.89844,89921.53125,97.29127502,0,0,0,9.778938293,0.08225116134,-1.158918858,-0.00562043814,0.005371011794,0.001546452288,-28.9101696,-8.440651894,-6.791166306,0,0,0,12.3865633,0.1305260062,32.63999939,0,0,0,0,0,0,0,0,0,0,0,0,0,0,0,2,1,1,0,0,1,1,0,0
254,162,60,1,1,180,17764,0,85781.69531,89981.96875,97.7039032,0,0,0,9.780495644,0.05415214598,-1.157096267,-0.004660016391,0.004676140845,0.00103197596,-28.60759926,-7.944863319,-7.000326633,0,0,0,12.37862301,0.1303390115,32.63999939,0,0,0,0,0,0,0,0,0,0,0,0,0,0,0,2,1,1,0,0,1,1,0,0
254,162,61,1,1,180,18014,0,85784.64062,89931.60938,97.49733734,0,0,0,9.752010345,0.04661005363,-1.135841012,0.007649119478,0.004506328609,0.002045308007,-28.6246891,-8.298997879,-6.791166306,0,0,0,12.37862301,0.1303390115,32.65000153,0,0,0,0,0,0,0,0,0,0,0,0,0,0,0,2,1,1,0,0,1,1,0,0
254,162,62,1,1,180,18264,0,85784.79688,89921.53125,97.70246887,0,0,0,9.779682159,0.05799122527,-1.13941443,0.009478255175,0.006019523833,0.00261067762,-28.62128448,-8.511478424,-7.139913559,0,0,0,12.37862301,0.1303390115,32.65000153,0,0,0,0,0,0,0,0,0,0,0,0,0,0,0,2,1,1,0,0,1,1,0,0
254,162,63,1,1,180,18514,0,85785.17188,89971.89062,97.80513,0,0,0,9.761829376,0.07416451722,-1.143881083,-0.0117231058,0.005088326056,0.000581998087,-28.42753983,-8.157343864,-6.651623249,0,0,0,12.37862301,0.1303390115,32.65000153,0,0,0,0,0,0,0,0,0,0,0,0,0,0,0,2,1,1,0,0,1,1,0,0
254,162,64,1,1,180,18764,0,85787.89062,90002.11719,97.70289612,0,0,0,9.769417763,0.05349864438,-1.160556793,0.0183745157,0.004955298733,0.001995422412,-28.33583641,-8.157343864,-6.860901833,0,0,0,12.37107944,0.1305260062,32.65999985,0,0,0,0,0,0,0,0,0,0,0,0,0,0,0,2,1,1,0,0,1,1,0,0
254,162,65,1,1,180,19014,0,85785.47656,89992.03906,97.59944153,0,0,0,9.763036728,0.09539312869,-1.146267891,0.005788739771,0.004127903841,0.0002579939028,-28.4378376,-8.01568985,-6.581928253,0,0,0,12.37107944,0.1305260062,32.65999985,0,0,0,0,0,0,0,0,0,0,0,0,0,0,0,2,1,1,0,0,1,1,0,0
254,162,66,1,1,180,19264,0,85783.61719,89931.60938,97.70326996,0,0,0,9.781764984,0.06113603339,-1.15043211,-0.02066924796,0.00470587099,-0.001596337766,-28.80816078,-8.369825363,-6.581870079,0,0,0,12.37107944,0.1303390115,32.66999817,0,0,0,0,0,0,0,0,0,0,0,0,0,0,0,2,1,1,0,0,1,1,0,0
254,162,67,1,1,180,19514,0,85785.64844,89992.03906,97.80552673,0,0,0,9.772541046,0.04406425729,-1.116485357,0.01298687421,0.004938669968,0.002394506708,-28.3290062,-8.228167534,-6.651602745,0,0,0,12.37107944,0.1303390115,32.66999817,0,0,0,0,0,0,0,0,0,0,0,0,0,0,0,2,1,1,0,0,1,1,0,0
254,162,68,1,1,180,19764,0,85785.08594,89992.03906,97.70293427,0,0,0,9.758256912,0.07401476055,-1.170085907,0.02223232761,0.005437525455,0.003491988871,-28.52611923,-8.228171349,-6.721395493,0,0,0,12.36319065,0.1305260062,32.66999817,0,0,0,0,0,0,0,0,0,0,0,0,0,0,0,2,1,1,0,0,1,1,0,0
254,162,69,1,1,180,20014,0,85783.11719,89992.03906,97.80576324,0,0,0,9.793219566,0.05619419366,-1.125567555,-0.01672829129,0.005371010862,0.0004988556029,-28.71297646,-8.298996925,-6.791129112,0,0,0,12.36319065,0.1303390115,32.66999817,0,0,0,0,0,0,0,0,0,0,0,0,0,0,0,2,1,1,0,0,1,1,0,0
254,162,70,1,1,180,20264,0,85780.70312,89981.96875,97.70265198,0,0,0,9.76554966,0.08584525436,-1.185719371,-0.01845765673,0.004539585672,8.314260049e-05,-28.62472343,-8.157343864,-6.860920429,0,0,0,12.36319065,0.130152002,32.66999817,0,0,0,0,0,0,0,0,0,0,0,0,0,0,0,2,1,1,0,0,1,1,0,0
254,162,71,1,1,180,20514,0,85779.94531,90002.11719,97.8059845,0,0,0,9.77120018,0.0720680058,-1.129140735,0.01094156597,0.004789013881,0.002494277433,-28.14891243,-8.157341957,-6.651662827,0,0,0,12.36319065,0.1303390115,32.68000031,0,0,0,0,0,0,0,0,0,0,0,0,0,0,0,2,1,1,0,0,1,1,0,0
254,162,72,1,1,180,20764,0,85785.17969,90002.11719,97.80480957,0,0,0,9.760491371,0.1011199951,-1.148347855,0.0007316550473,0.004157130141,0.001862394274,-28.23388481,-8.369822502,-6.791108608,0,0,0,12.35521412,0.130152002,32.68000031,0,0,0,0,0,0,0,0,0,0,0,0,0,0,0,2,1,1,0,0,1,1,0,0
254,162,73,1,1,180,21014,0,85781.39844,89951.75,97.70365906,0,0,0,9.758997917,0.0733204633,-1.14063704,-0.007659195922,0.004434272181,0.0006772342022,-28.89983368,-8.157342911,-6.860861301,0,0,0,12.35521412,0.1303390115,32.68000031,0,0,0,0,0,0,0,0,0,0,0,0,0,0,0,2,1,1,0,0,1,1,0,0
254,162,74,1,1,180,21264,0,85781.99219,89941.67188,97.80628967,0,0,0,9.750968933,0.07371525466,-1.121845126,-0.002028679242,0.005038441624,0.00206193584,-28.33927155,-8.228171349,-6.791166782,0,0,0,12.35521412,0.1305260062,32.68999863,0,0,0,0,0,0,0,0,0,0,0,0,0,0,0,2,1,1,0,0,1,1,0,0
254,162,75,1,1,180,21514,0,85785.28906,89931.60938,97.80602264,0,0,0,9.759895325,0.06907295436,-1.1474545,-0.002461020602,0.00450632954,0.001247138949,-28.71643448,-8.298997879,-6.860899448,0,0,0,12.35521412,0.1303390115,32.68999863,0,0,0,0,0,0,0,0,0,0,0,0,0,0,0,2,1,1,0,0,1,1,0,0
254,162,76,1,1,180,21764,0,85781.76562,89971.89062,97.80528259,0,0,0,9.76138401,0.06937243044,-1.134203076,0.003309075488,0.003874444868,0.001945536584,-28.24070549,-8.01568985,-6.791148186,0,0,0,12.34811878,0.1305260062,32.68999863,0,0,0,0,0,0,0,0,0,0,0,0,0,0,0,2,1,1,0,0,1,1,0,0
254,162,77,1,1,180,22014,0,85786.42969,90002.11719,97.80422211,0,0,0,9.766738892,0.05679320544,-1.127949595,-0.001696109073,0.005237984005,0.00197879388,-28.15921021,-8.086515427,-6.930733681,0,0,0,12.34811878,0.1305260062,32.68999863,0,0,0,0,0,0,0,0,0,0,0,0,0,0,0,2,1,1,0,0,1,1,0,0
254,162,78,1,1,180,22264,0,85784.07812,90002.11719,97.70279694,0,0,0,9.781170845,0.08943928778,-1.133607626,-0.001928908168,0.00332570402,0.001080853748,-28.55009651,-8.228173256,-6.651774883,0,0,0,12.34811878,0.1305260062,32.70000076,0,0,0,0,0,0,0,0,0,0,0,0,0,0,0,2,1,1,0,0,1,1,0,0
254,162,79,1,1,180,22514,0,85785.33594,89992.03906,97.80401611,0,0,0,9.745464325,0.05604444072,-1.148496628,0.004223643802,0.007067120634,0.001330281491,-28.55031967,-8.299004555,-7.070300102,0,0,0,12.34811878,0.130152002,32.70000076,0,0,0,0,0,0,0,0,0,0,0,0,0,0,0,2,1,1,0,0,1,1,0,0
254,162,80,1,1,180,22764,0,85785.0625,89941.67188,97.80451965,0,0,0,9.773284912,0.0762610808,-1.149240971,0.005753467791,0.004805641714,0.001380167087,-28.25436211,-8.157344818,-6.581964493,0,0,0,12.34137821,0.1305260062,32.70000076,0,0,0,0,0,0,0,0,0,0,0,0,0,0,0,2,1,1,0,0,1,1,0,0
254,162,81,1,1,180,23014,0,85784.38281,89941.67188,97.90773773,0,0,0,9.746058464,0.06263358891,-1.142243385,-0.006102666724,0.006036152132,0.000964454026,-28.34952736,-8.01568985,-6.651717186,0,0,0,12.34137821,0.1303390115,32.70000076,0,0,0,0,0,0,0,0,0,0,0,0,0,0,0,2,1,1,0,0,1,1,0,0
254,162,82,1,1,180,23264,0,85785.32031,89931.60938,97.80458832,0,0,0,9.752159119,0.07596154511,-1.152814507,0.0003325703437,0.00595300924,0.001313653076,-27.97227287,-8.228173256,-6.581983566,0,0,0,12.34137821,0.1303390115,32.70999908,0,0,0,0,0,0,0,0,0,0,0,0,0,0,0,2,1,1,0,0,1,1,0,0
254,162,83,1,1,180,23514,0,85782.21875,90012.1875,97.90860748,0,0,0,9.757662773,0.09438112378,-1.137180805,0.005121583119,0.005504038651,0.002194964327,-28.24753571,-8.369825363,-6.651679516,0,0,0,12.34137821,0.1305260062,32.70999908,0,0,0,0,0,0,0,0,0,0,0,0,0,0,0,2,1,1,0,0,1,1,0,0
254,162,84,1,1,180,23764,0,85786.30469,89941.67188,97.39340973,0,0,0,9.767036438,0.04002093524,-1.148645401,0.005670324899,0.005104955286,0.0009311969625,-28.44125748,-8.440653801,-7.070218563,0,0,0,12.33521557,0.1305260062,32.70999908,0,0,0,0,0,0,0,0,0,0,0,0,0,0,0,2,1,1,0,0,1,1,0,0
254,162,85,1,1,180,24014,0,85784.46875,90012.1875,98.01002502,0,0,0,9.753645897,0.0594887808,-1.151623368,0.01260441635,0.00578672532,0.002660563216,-28.6212883,-8.228171349,-6.860899448,0,0,0,12.33521557,0.1305260062,32.70999908,0,0,0,0,0,0,0,0,0,0,0,0,0,0,0,2,1,1,0,0,1,1,0,0
254,162,86,1,1,180,24264,0,85788.20312,90002.11719,97.80339813,0,0,0,9.754538536,0.07521281391,-1.127800822,0.009029285982,0.006169180386,0.002693820046,-28.44128036,-8.228172302,-6.791205883,0,0,0,12.33521557,0.1303390115,32.72000122,0,0,0,0,0,0,0,0,0,0,0,0,0,0,0,2,1,1,0,0,1,1,0,0
254,162,87,1,1,180,24514,0,85784.04688,90002.11719,97.90790558,0,0,0,9.771907806,0.05960468203,-1.118747234,-0.002677728189,0.005544270389,0.0001201544947,-28.63159561,-8.228171349,-6.651698589,0,0,0,12.33521557,0.1305260062,32.72000122,0,0,0,0,0,0,0,0,0,0,0,0,0,0,0,2,1,1,0,0,1,1,0,0
254,162,88,1,1,180,24764,0,85785.44531,89981.96875,97.90598297,0,0,0,9.770904541,0.04526227713,-1.144625425,0.002959876321,0.005903124809,0.001163996174,-28.63152885,-8.228171349,-6.72145319,0,0,0,12.32984257,0.1303390115,32.72000122,0,0,0,0,0,0,0,0,0,0,0,0,0,0,0,2,1,1,0,0,1,1,0,0
254,162,89,1,1,180,25014,0,85785.83594,90012.1875,98.00961304,0,0,0,9.763911247,0.09647766501,-1.134947658,0.002394506708,0.006418608129,0.001280395896,-28.06740379,-8.157344818,-6.791247845,0,0,0,12.32984257,0.1303390115,32.72999954,0,0,0,0,0,0,0,0,0,0,0,0,0,0,0,2,1,1,0,0,1,1,0,0
254,162,90,1,1,180,25264,0,85786.98438,90012.1875,97.80420685,0,0,0,9.783996582,0.08449745178,-1.126461029,-0.007050491869,0.005670324899,0.0007316547562,-28.26117706,-8.157344818,-6.512248993,0,0,0,12.32984257,0.1303390115,32.72999954,0,0,0,0,0,0,0,0,0,0,0,0,0,0,0,2,1,1,0,0,1,1,0,0
254,162,91,1,1,180,25514,0,85786.34375,90012.1875,97.80503082,0,0,0,9.758108139,0.05724249408,-1.151474237,0.009245456196,0.005969638005,0.0008979401318,-27.97227287,-8.086518288,-6.791244507,0,0,0,12.32984257,0.1303390115,32.72999954,0,0,0,0,0,0,0,0,0,0,0,0,0,0,0,2,1,1,0,0,1,1,0,0
254,162,92,1,1,180,25764,0,85787.4375,90022.25781,98.00906372,0,0,0,9.774475098,0.08674374223,-1.133905172,0.00427352963,0.005171469878,0.001745994319,-28.82534027,-8.369827271,-6.651717186,0,0,0,12.3247385,0.1303390115,32.72999954,0,0,0,0,0,0,0,0,0,0,0,0,0,0,0,2,1,1,0,0,1,1,0,0
254,162,93,1,1,180,26014,0,85784.8125,90002.11719,97.907547,0,0,0,9.744124413,0.08285020292,-1.159067869,0.0004655984521,0.006368723698,0.0004489699786,-28.26463509,-8.157345772,-6.721530437,0,0,0,12.3247385,0.1303390115,32.72999954,0,0,0,0,0,0,0,0,0,0,0,0,0,0,0,2,1,1,0,0,1,1,0,0
254,162,94,1,1,180,26264,0,85785.83594,90012.1875,97.90607452,0,0,0,9.778343201,0.06473009288,-1.171425939,0.01260441728,0.005553924944,0.00172936602,-28.78295326,-8.015690804,-7.209776402,0,0,0,12.3247385,0.1305260062,32.74000168,0,0,0,0,0,0,0,0,0,0,0,0,0,0,0,2,1,1,0,0,1,1,0,0
254,162,95,1,1,180,26514,0,85789.99219,90012.1875,98.01010895,0,0,0,9.761383057,0.05963853374,-1.139712095,0.007266663015,0.005853238516,0.0009644539678,-29.02602959,-8.228173256,-6.721529484,0,0,0,12.3247385,0.1305260062,32.74000168,0,0,0,0,0,0,0,0,0,0,0,0,0,0,0,2,1,1,0,0,1,1,0,0
254,162,96,1,1,180,26764,0,85782.67188,90012.1875,97.90853882,0,0,0,9.776408195,0.09138610214,-1.138371944,0.007449576631,0.005670325365,0.002012050711,-28.54671478,-8.369828224,-6.4424963,0,0,0,12.32037067,0.1303390115,32.74000168,0,0,0,0,0,0,0,0,0,0,0,0,0,0,0,2,1,1,0,0,1,1,0,0
254,162,97,1,1,180,27014,0,85785.82031,90022.25781,97.90635681,0,0,0,9.772992134,0.04413225874,-1.153920054,0.002708937041,0.004531018436,0.001306094578,-27.9790802,-8.228173256,-6.791282654,0,0,0,12.32037067,0.1305260062,32.75,0,0,0,0,0,0,0,0,0,0,0,0,0,0,0,2,1,1,0,0,1,1,0,0
254,162,98,1,1,180,27264,0,85779.6875,90012.1875,98.01248169,0,0,0,9.748714447,0.05604930222,-1.14011085,-0.005647259299,0.004377054982,0.001682162518,-28.82877541,-8.369828224,-6.651735783,0,0,0,12.32037067,0.1303390115,32.74000168,0,0,0,0,0,0,0,0,0,0,0,0,0,0,0,2,1,1,0,0,1,1,0,0
254,162,99,1,1,180,27514,0,85786.82812,90012.1875,97.90365601,0,0,0,9.782811165,0.0626963675,-1.150562048,-0.02286367677,0.004085252061,0.00080675137,-28.46867371,-8.228175163,-6.861113548,0,0,0,12.32037067,0.1303390115,32.75,0,0,0,0,0,0,0,0,0,0,0,0,0,0,0,2,1,1,0,0,1,1,0,0
254,162,100,1,1,180,27764,0,85788.80469,89951.75,98.52135468,0,0,0,9.772688866,0.04316570982,-1.188399553,-0.004539585672,0.004622728564,0.001197253237,-28.3631916,-8.086519241,-6.582038879,0,0,0,12.31573963,0.1305260062,32.75,0,0,0,0,0,0,0,0,0,0,0,0,0,0,0,2,1,1,0,0,1,1,0,0
254,162,101,1,1,180,28014,0,85785,90022.25781,98.31650543,0,0,0,9.763169289,0.09198511392,-1.123780608,0.01047596708,0.00618580915,0.002028679475,-28.55013466,-8.086518288,-6.72152853,0,0,0,12.31573963,0.1305260062,32.75,0,0,0,0,0,0,0,0,0,0,0,0,0,0,0,2,1,1,0,0,1,1,0,0
254,162,102,1,1,180,28264,0,85784.32812,90012.1875,98.62158203,0,0,0,9.765149117,0.1113901213,-1.121359825,0.009886996821,0.006454010028,0.0007895863964,-28.65562057,-7.803205013,-6.582078934,0,0,0,12.31573963,0.1305260062,32.75,0,0,0,0,0,0,0,0,0,0,0,0,0,0,0,2,1,1,0,0,1,1,0,0
254,162,103,1,1,180,28514,0,85785.625,90012.1875,98.21380615,0,0,0,9.772392273,0.0587400198,-1.176339149,0.006751178764,0.004373300355,0.003608388593,-27.9722538,-8.157344818,-6.721489906,0,0,0,12.31573963,0.1305260062,32.75999832,0,0,0,0,0,0,0,0,0,0,0,0,0,0,0,2,1,1,0,0,1,1,0,0
254,162,104,1,1,180,28764,0,85787.625,90022.25781,98.21377563,0,0,0,9.735347748,0.04810757935,-1.131671786,0.005903124344,0.003841186874,0.002311364049,-28.54674911,-8.299001694,-6.72151041,0,0,0,12.31134033,0.1305260062,32.75999832,0,0,0,0,0,0,0,0,0,0,0,0,0,0,0,2,1,1,0,0,1,1,0,0
254,162,105,1,1,180,29014,0,85786.22656,89941.67188,98.72336578,0,0,0,9.790840149,0.09468065947,-1.167256951,0.003109532874,0.005570553709,0.001529823756,-28.65218163,-8.228173256,-6.791323662,0,0,0,12.31134033,0.1305260062,32.75999832,0,0,0,0,0,0,0,0,0,0,0,0,0,0,0,2,1,1,0,0,1,1,0,0
254,162,106,1,1,180,29264,0,85786.3125,90022.25781,98.11139679,0,0,0,9.775666237,0.07251726836,-1.187208056,0.01282058749,0.004905412905,0.0003491989046,-28.46178627,-8.157346725,-6.44255209,0,0,0,12.31134033,0.1305260062,32.75999832,0,0,0,0,0,0,0,0,0,0,0,0,0,0,0,2,1,1,0,0,1,1,0,0
254,162,107,1,1,180,29514,0,85788.875,90032.33594,98.00859833,0,0,0,9.774178505,0.04256670177,-1.133160949,-0.002261477988,0.005221354775,0.0006485121557,-28.84257889,-8.157344818,-6.582057953,0,0,0,12.31134033,0.1303390115,32.77000046,0,0,0,0,0,0,0,0,0,0,0,0,0,0,0,2,1,1,0,0,1,1,0,0
254,162,108,1,1,180,29764,0,85783.46875,89951.75,98.72466278,0,0,0,9.776453972,0.08101686835,-1.155363679,0.01088412106,0.005208254792,4.837391316e-05,-28.84947586,-8.228175163,-7.000623703,0,0,0,12.30716133,0.1305260062,32.77000046,0,0,0,0,0,0,0,0,0,0,0,0,0,0,0,2,1,1,0,0,1,1,0,0
254,162,109,1,1,180,30014,0,85785.90625,89951.75,98.72373962,0,0,0,9.764954567,0.0587400198,-1.144178748,-0.01142379176,0.004672613461,0.002244850388,-28.74391365,-8.299002647,-6.58204031,0,0,0,12.30716133,0.1305260062,32.77000046,0,0,0,0,0,0,0,0,0,0,0,0,0,0,0,2,1,1,0,0,1,1,0,0
254,162,110,1,1,180,30264,0,85783.91406,90022.25781,98.72444916,0,0,0,9.756090164,0.07908222824,-1.132887363,0.04042339325,0.007106278092,0.00283221202,-28.26799011,-7.944861889,-6.582041264,0,0,0,12.30716133,0.1303390115,32.77000046,0,0,0,0,0,0,0,0,0,0,0,0,0,0,0,2,1,1,0,0,1,1,0,0
254,162,111,1,1,180,30514,0,85783.01562,90012.1875,98.72383881,0,0,0,9.784891129,0.04735878482,-1.15787673,-0.005819982383,0.003891072934,0.0002993133385,-28.65905952,-8.157346725,-6.651851654,0,0,0,12.30716133,0.1303390115,32.77999878,0,0,0,0,0,0,0,0,0,0,0,0,0,0,0,2,1,1,0,0,1,1,0,0
254,162,112,1,1,180,30764,0,85785.71875,89961.82031,98.00913239,0,0,0,9.770309448,0.07985511422,-1.144625425,0.005803351756,0.004190386273,0.0008979400736,-28.75770187,-8.086518288,-7.00064373,0,0,0,12.30319118,0.1303390115,32.77999878,0,0,0,0,0,0,0,0,0,0,0,0,0,0,0,2,1,1,0,0,1,1,0,0
254,162,113,1,1,180,31014,0,85786.20312,89961.82031,97.9068985,0,0,0,9.767483711,0.08000490069,-1.13509655,0.009045914747,0.004423186183,0.0004323414469,-28.93779945,-8.086517334,-6.861075401,0,0,0,12.30319118,0.1303390115,32.77999878,0,0,0,0,0,0,0,0,0,0,0,0,0,0,0,2,1,1,0,0,1,1,0,0
254,162,114,1,1,180,31264,0,85785.35938,89971.89062,98.72377777,0,0,0,9.790543556,0.0629330948,-1.123780847,-0.007898546755,0.004506329075,-0.0001163995912,-28.52309799,-8.334417343,-7.105294228,0,0,0,12.30319118,0.1305260062,32.77999878,0,0,0,0,0,0,0,0,0,0,0,0,0,0,0,2,1,1,0,0,1,1,0,0
254,162,115,1,1,180,31514,0,85785.88281,89951.75,98.11261749,0,0,0,9.76495266,0.03897266462,-1.133309841,-0.007499461528,0.005021811929,0.001097482163,-28.56390953,-8.299003601,-6.442587852,0,0,0,12.30319118,0.1303390115,32.77999878,0,0,0,0,0,0,0,0,0,0,0,0,0,0,0,2,1,1,0,0,1,1,0,0
254,162,116,1,1,180,31764,0,85784.34375,90022.25781,98.72346497,0,0,0,9.749332428,0.03448002413,-1.136585593,-0.01621280424,0.005104955286,0.0019455367,-28.67965126,-8.228177071,-6.582211494,0,0,0,12.2994194,0.1305260062,32.77999878,0,0,0,0,0,0,0,0,0,0,0,0,0,0,0,2,1,1,0,0,1,1,0,0
254,162,117,1,1,180,32014,0,85787.57812,90022.25781,98.82418823,0,0,0,9.753945351,0.07641083747,-1.161897063,0.0005653696135,0.005537295714,0.0006651408039,-28.54675293,-8.157345772,-6.721511364,44.00041199,0.3677569032,10274.57227,12.2994194,0.1303390115,32.79000092,0,0,0,0,0,0,0,0,0,0,0,0,0,0,0,2,1,1,0,0,1,1,0,0
254,162,118,1,1,180,32264,0,85786.29688,90032.33594,98.82534027,0,0,0,9.785399437,0.07767691463,-1.151465297,0.007497949991,0.00522437878,0.002338070422,-28.76114082,-8.157347679,-6.721644878,44.38725281,0.6865490079,10418.85938,12.2994194,0.1303390115,32.79000092,0,0,0,0,0,0,0,0,0,0,0,0,0,0,0,2,1,1,0,0,1,1,0,0
254,162,119,1,1,180,32514,0,85786.49219,90032.33594,98.01029968,0,0,0,9.776110649,0.07641080767,-1.12884295,0.006967348978,0.005188097712,0.0009145686054,-28.38033485,-8.157348633,-6.791398525,43.26117325,-0.2265402973,9999.099609,12.2994194,0.1303390115,32.79000092,0,0,0,0,0,0,0,0,0,0,0,0,0,0,0,2,1,1,0,0,1,1,0,0
254,162,120,1,1,180,32764,0,85786.46094,90032.33594,98.92615509,0,0,0,9.777153015,0.09512989223,-1.126460791,0.003658274421,0.004389929119,0.001130739227,-28.28164101,-8.511489868,-7.00064373,43.28266144,-0.2090360969,10007.10059,12.29511356,0.1303390115,32.79999924,0,0,0,0,0,0,0,0,0,0,0,0,0,0,0,2,1,1,0,0,1,1,0,0
254,162,121,1,1,180,33014,0,85785.01562,90022.25781,98.11009216,0,0,0,9.773857117,0.05124782026,-1.13442874,0.004289150704,0.004482645076,0.0010642251,-28.47905159,-8.228178978,-6.791419506,44.00515747,0.3733003139,10276.34082,12.29511356,0.1303390115,32.79999924,0,0,0,0,0,0,0,0,0,0,0,0,0,0,0,2,1,1,0,0,1,1,0,0
254,162,122,1,1,180,33264,0,85787.35156,90022.25781,98.82430267,0,0,0,9.785335541,0.06263355911,-1.155941248,0.004888785072,0.005603809841,-0.0002826848067,-28.46518326,-8.299003601,-6.651833057,43.63092422,0.07025270164,10136.83496,12.29511356,0.1303390115,32.79999924,0,0,0,0,0,0,0,0,0,0,0,0,0,0,0,2,1,1,0,0,1,1,0,0
254,162,123,1,1,180,33514,0,85787.54688,90032.33594,98.11100769,0,0,0,9.749793053,0.07212595642,-1.148256421,0.008582461625,0.005115147214,0.002059790306,-28.47208023,-8.228176117,-6.651870728,44.00753021,0.3760725856,10277.22559,12.29511356,0.1303390115,32.79999924,0,0,0,0,0,0,0,0,0,0,0,0,0,0,0,2,1,1,0,0,1,1,0,0
254,162,124,1,1,180,33764,0,85784.11719,90022.25781,98.72296143,0,0,0,9.759448051,0.06458034366,-1.146710277,0.01617954671,0.005337754264,0.001396795618,-28.18991852,-8.086518288,-6.721644878,42.48064423,-0.8350490928,9708.77832,12.29102325,0.1303390115,32.79999924,0,0,0,0,0,0,0,0,0,0,0,0,0,0,0,2,1,1,0,0,1,1,0,0
254,162,125,1,1,180,34014,0,85783.25,89961.82031,98.82622528,0,0,0,9.796940804,0.07221776247,-1.145667672,-0.008031574078,0.00347536034,0.0006152550341,-28.85634804,-8.228176117,-6.512379646,42.56476974,-0.7697532177,9740.037109,12.29102325,0.1303390115,32.79999924,0,0,0,0,0,0,0,0,0,0,0,0,0,0,0,2,1,1,0,0,1,1,0,0
254,162,126,1,1,180,34264,0,85785.52344,90042.40625,98.82349396,0,0,0,9.768375397,0.08913981169,-1.138372183,-0.00523798354,0.004955298733,0.001729366137,-28.48923111,-8.440665245,-6.51245594,43.20224762,-0.2705447078,9977.160156,12.29102325,0.1303390115,32.81000137,0,0,0,0,0,0,0,0,0,0,0,0,0,0,0,2,1,1,0,0,1,1,0,0
254,162,127,1,1,180,34514,0,85789.42188,90032.33594,98.92534637,0,0,0,9.794558525,0.03178441897,-1.151921034,0.0273871664,0.006817692891,0.0004988554865,-28.29534912,-8.228177071,-6.512437344,43.20365524,-0.2689901888,9977.683594,12.29102325,0.1303390115,32.81000137,0,0,0,0,0,0,0,0,0,0,0,0,0,0,0,2,1,1,0,0,1,1,0,0
254,162,128,1,1,180,34764,0,85783.52344,90032.33594,98.92751312,0,0,0,9.76807785,0.03567810729,-1.133011937,-0.002494277665,0.00523798354,0.002278106986,-28.77832222,-8.228178024,-6.651986122,43.22890091,-0.2485340983,9987.084961,12.28713703,0.1305260062,32.81000137,0,0,0,0,0,0,0,0,0,0,0,0,0,0,0,2,1,1,0,0,1,1,0,0
254,162,129,1,1,180,35014,0,85786.4375,90042.40625,98.31583405,0,0,0,9.793518066,0.04735878482,-1.126162887,-0.004439814482,0.004373300821,0.002427763771,-28.29195786,-8.01568985,-6.930948257,43.23011017,-0.247199893,9987.533203,12.28713703,0.1305260062,32.81999969,0,0,0,0,0,0,0,0,0,0,0,0,0,0,0,2,1,1,0,0,1,1,0,0
254,162,130,1,1,180,35264,0,85784.98438,90032.33594,98.11164856,0,0,0,9.782510757,0.05140210688,-1.104573965,-0.004240272101,0.004955298733,9.977100854e-05,-28.2919426,-8.3698349,-6.930948257,43.2313118,-0.2458655983,9987.982422,12.28713703,0.130152002,32.81999969,0,0,0,0,0,0,0,0,0,0,0,0,0,0,0,2,1,1,0,0,1,1,0,0
254,162,131,1,1,180,35514,0,85788.45312,90042.40625,98.92683411,0,0,0,9.781913757,0.06458034366,-1.14060533,0.0006651403382,0.005304497667,-0.0009311969043,-28.11509895,-8.369837761,-6.861271381,43.63117981,0.0741764009,10136.92969,12.28713703,0.1305260062,32.81999969,0,0,0,0,0,0,0,0,0,0,0,0,0,0,0,2,1,1,0,0,1,1,0,0
254,162,132,1,1,180,35764,0,85785.23438,90042.40625,98.92672729,0,0,0,9.767631531,0.06398136169,-1.127056479,0.00119725347,0.003857816104,0.001247138716,-28.86669922,-8.582324982,-7.140233517,43.21007919,-0.2618823946,9980.077148,12.28320408,0.1303390115,32.81999969,0,0,0,0,0,0,0,0,0,0,0,0,0,0,0,2,1,1,0,0,1,1,0,0
254,162,133,1,1,180,36014,0,85786.05469,90032.33594,98.72219086,0,0,0,9.758110046,0.08000490069,-1.188994884,0.003591760062,0.004423186183,0.001330281259,-28.66593361,-8.121932983,-6.89603138,43.63357162,0.07689829916,10137.82129,12.28320408,0.1303390115,32.81999969,0,0,0,0,0,0,0,0,0,0,0,0,0,0,0,2,1,1,0,0,1,1,0,0
254,162,134,1,1,180,36264,0,85785.11719,90042.40625,98.92678833,0,0,0,9.759314537,0.05991388112,-1.188216925,-0.001956800697,0.004205406178,0.002334429417,-28.52825165,-8.228177071,-6.268266678,43.25880814,-0.2224608958,9998.21875,12.28320408,0.1303390115,32.81999969,0,0,0,0,0,0,0,0,0,0,0,0,0,0,0,2,1,1,0,0,1,1,0,0
254,162,135,1,1,180,36514,0,85788.35156,90022.25781,98.82295227,0,0,0,9.789054871,0.04915578663,-1.122291684,-0.00670129247,0.004922042135,0.002145078732,-28.7749157,-8.228178024,-7.070499897,43.23733521,-0.239192903,9990.223633,12.28320408,0.1305260062,32.83000183,0,0,0,0,0,0,0,0,0,0,0,0,0,0,0,2,1,1,0,0,1,1,0,0
254,162,136,1,1,180,36764,0,85785.32031,90032.33594,98.72225952,0,0,0,9.787270546,0.06562864035,-1.130332232,-0.008513801731,0.005387640093,0.001230510301,-28.87010956,-8.299006462,-6.651967049,44.0239296,0.3952575028,10283.34082,12.28043175,0.1303390115,32.83000183,0,0,0,0,0,0,0,0,0,0,0,0,0,0,0,2,1,1,0,0,1,1,0,0
254,162,137,1,1,180,37014,0,85789.19531,90032.33594,98.21256256,0,0,0,9.740852356,0.08389844,-1.16353476,0.01045933738,0.004306786228,0.001612966065,-28.00966835,-8.157348633,-6.930968761,43.24014664,-0.2360782027,9991.269531,12.28043175,0.1303390115,32.83000183,0,0,0,0,0,0,0,0,0,0,0,0,0,0,0,2,1,1,0,0,1,1,0,0
254,162,138,1,1,180,37264,0,85787.02344,90042.40625,98.92644501,0,0,0,9.784146309,0.09917321056,-1.154303312,0.003625016892,0.004705870524,0.002510906197,-28.10489082,-8.157347679,-6.861212254,43.24135208,-0.2347431928,9991.71875,12.28043175,0.1305260062,32.83000183,0,0,0,0,0,0,0,0,0,0,0,0,0,0,0,2,1,1,0,0,1,1,0,0
254,162,139,1,1,180,37514,0,85784.75,90032.33594,98.92488098,0,0,0,9.771837234,0.05110263079,-1.162438154,0.00909428671,0.004402022809,0.001531839487,-28.29534912,-8.157348633,-6.651947498,43.24235153,-0.2336305976,9992.091797,12.28043175,0.1303390115,32.84000015,0,0,0,0,0,0,0,0,0,0,0,0,0,0,0,2,1,1,0,0,1,1,0,0
254,162,140,1,1,180,37764,0,85790.41406,90042.40625,98.92577362,0,0,0,9.773137093,0.05993803963,-1.148347855,0.006701293401,0.006418608129,0.001114110695,-28.48582077,-8.440665245,-6.791459084,43.63098526,0.07779990137,10136.85742,12.2777977,0.1305260062,32.84000015,0,0,0,0,0,0,0,0,0,0,0,0,0,0,0,2,1,1,0,0,1,1,0,0
254,162,141,1,1,180,38014,0,85786.55469,90042.40625,99.02750397,0,0,0,9.753944397,0.07371525466,-1.160407901,0.00586986728,0.004439814016,0.0010642251,-28.49268913,-8.228177071,-6.79149437,33.41700363,-13.3370924,6448.170898,12.2777977,0.1305260062,32.84000015,0,0,0,0,0,0,0,0,0,0,0,0,0,0,0,2,1,1,0,0,1,1,0,0
254,162,142,1,1,180,38264,0,85786.95312,90042.40625,98.9256897,0,0,0,9.787716866,0.0552957058,-1.154303432,0.001696108957,0.004722499289,0.002860105131,-28.30901909,-8.228177071,-6.861289978,33.84830856,-12.88229275,6596.157227,12.2777977,0.1305260062,32.84000015,0,0,0,0,0,0,0,0,0,0,0,0,0,0,0,2,1,1,0,0,1,1,0,0
254,162,143,1,1,180,38514,0,85786.80469,90042.40625,98.92479706,0,0,0,9.764209747,0.04406422749,-1.106360674,-0.0006152552669,0.004024100956,0.001862394158,-28.68312263,-8.086518288,-6.721741199,33.46932983,-13.13203812,6466.074219,12.2777977,0.1303390115,32.84000015,0,0,0,0,0,0,0,0,0,0,0,0,0,0,0,2,1,1,0,0,1,1,0,0
254,162,144,1,1,180,38764,0,85787.77344,90042.40625,98.82410431,0,0,0,9.790394783,0.04256673157,-1.133458853,0.003491988871,0.004922042135,0.001646223362,-28.78867149,-8.228178978,-6.72179842,33.2611084,-13.34708595,6394.916992,12.27409077,0.1303390115,32.84000015,0,0,0,0,0,0,0,0,0,0,0,0,0,0,0,2,1,1,0,0,1,1,0,0
254,162,145,1,1,180,39014,0,85790.57031,90042.40625,98.21357727,0,0,0,9.754092216,0.06707627326,-1.197811007,-0.005159880035,0.004095654935,0.000935228134,-28.49265671,-8.440667152,-6.651984215,34.01703644,-12.86174965,6654.305176,12.27409077,0.1303390115,32.84000015,0,0,0,0,0,0,0,0,0,0,0,0,0,0,0,2,1,1,0,0,1,1,0,0
254,162,146,1,1,180,39264,0,85788.0625,90052.46875,98.92539978,0,0,0,9.772983551,0.08511098474,-1.137344241,-0.001424688497,0.005029321648,0.000600772386,-28.20009804,-8.369835854,-6.512437344,33.25257111,-13.34648991,6392.003906,12.27409077,0.1303390115,32.84999847,0,0,0,0,0,0,0,0,0,0,0,0,0,0,0,2,1,1,0,0,1,1,0,0
254,162,147,1,1,180,39514,0,85788.20312,90042.40625,98.31599426,0,0,0,9.775746346,0.07336260378,-1.16746819,0.005080817267,0.005458444823,0.001476183184,-28.20012283,-8.01568985,-6.791458607,33.41873169,-13.33306122,6448.762207,12.27409077,0.1303390115,32.84999847,0,0,0,0,0,0,0,0,0,0,0,0,0,0,0,2,1,1,0,0,1,1,0,0
254,162,148,1,1,180,39764,0,85788.99219,90032.33594,98.31494141,0,0,0,9.779831886,0.05289966613,-1.135543227,0.002710447647,0.005271239672,0.001163996407,-28.00971603,-8.228176117,-6.791458607,33.26227951,-13.34449005,6395.315918,12.27105141,0.1303390115,32.84999847,0,0,0,0,0,0,0,0,0,0,0,0,0,0,0,2,1,1,0,0,1,1,0,0
254,162,149,1,1,180,40014,0,85788.48438,90042.40625,98.21289062,0,0,0,9.789649963,0.06682663411,-1.114698648,0.00533775473,0.005354382563,0.001197253354,-28.68655205,-8.299008369,-6.721759796,33.63308716,-13.10735321,6522.192871,12.27105141,0.1305260062,32.84999847,0,0,0,0,0,0,0,0,0,0,0,0,0,0,0,2,1,1,0,0,1,1,0,0
254,162,150,1,1,180,40264,0,85787.11719,90032.33594,98.11121368,0,0,0,9.760638237,0.0552957058,-1.165321469,0.001978793647,0.004905412905,0.001280395896,-28.58789635,-8.299007416,-6.721741199,33.63338852,-13.10669041,6522.295898,12.27105141,0.1303390115,32.86000061,0,0,0,0,0,0,0,0,0,0,0,0,0,0,0,2,1,1,0,0,1,1,0,0
254,162,151,1,1,180,40514,0,85787.16406,90042.40625,98.31507874,0,0,0,9.765252113,0.05245034769,-1.143732309,0.003758045146,0.004988556262,0.0006318837404,-28.20016098,-8.299006462,-6.51243639,33.62786102,-13.11216354,6520.399902,12.27105141,0.1305260062,32.86000061,0,0,0,0,0,0,0,0,0,0,0,0,0,0,0,2,1,1,0,0,1,1,0,0
254,162,152,1,1,180,40764,0,85785.125,90032.33594,98.21244812,0,0,0,9.77179718,0.08434772491,-1.128545403,0.005504039116,0.00557055464,0.001579709467,-28.30220795,-8.51149559,-6.721741199,33.83975983,-12.8878994,6593.214844,12.26768208,0.1305260062,32.86000061,0,0,0,0,0,0,0,0,0,0,0,0,0,0,0,2,1,1,0,0,1,1,0,0
254,162,153,1,1,180,41014,0,85788.17188,90042.40625,98.21304321,0,0,0,9.768078804,0.07341571897,-1.14179647,0.002145078965,0.004456443246,-0.000482227013,-28.12029076,-8.546913147,-6.582277775,34.00296021,-12.86933422,6649.449219,12.26768208,0.1303390115,32.86000061,0,0,0,0,0,0,0,0,0,0,0,0,0,0,0,2,1,1,0,0,1,1,0,0
254,162,154,1,1,180,41264,0,85790.57031,90052.46875,98.3162384,0,0,0,9.76406002,0.05993803963,-1.140456319,0.0004655985394,0.004705870524,0.001829136861,-28.01648521,-8.369837761,-6.721740723,33.64080429,-13.09743118,6524.84082,12.26768208,0.1303390115,32.86000061,0,0,0,0,0,0,0,0,0,0,0,0,0,0,0,2,1,1,0,0,1,1,0,0
254,162,155,1,1,180,41514,0,85787.57812,90052.46875,98.31491852,0,0,0,9.779981613,0.04900609329,-1.125567555,-0.0009644539678,0.004323414527,0.001230510534,-28.78176117,-7.944859982,-6.931027412,34.0202179,-12.85473156,6655.403809,12.26768208,0.1307130009,32.86000061,0,0,0,0,0,0,0,0,0,0,0,0,0,0,0,2,1,1,0,0,1,1,0,0
254,162,156,1,1,180,41764,0,85789.42188,90032.33594,98.21246338,0,0,0,9.766499519,0.05371648818,-1.149011135,0.009932768531,0.00562749384,0.001289970009,-28.59476471,-8.157349586,-6.652024269,33.47353745,-13.12314034,6467.513184,12.26496315,0.1303390115,32.86999893,0,0,0,0,0,0,0,0,0,0,0,0,0,0,0,2,1,1,0,0,1,1,0,0
254,162,157,1,1,180,42014,0,85789.32812,90052.46875,98.41699982,0,0,0,9.775814056,0.06622765213,-1.134054303,0.002477649599,0.004872156307,0.0003658274654,-28.41111374,-8.01568985,-6.652060509,33.2650032,-13.33842754,6396.246094,12.26496315,0.1303390115,32.86999893,0,0,0,0,0,0,0,0,0,0,0,0,0,0,0,2,1,1,0,0,1,1,0,0
254,162,158,1,1,180,42264,0,85791.48438,90052.46875,98.31347656,0,0,0,9.772542953,0.04915581644,-1.168448091,0.002510906197,0.004622728564,0.001529823872,-28.50983238,-8.228179932,-6.512567997,33.26087189,-13.33812046,6394.834961,12.26496315,0.1303390115,32.86999893,0,0,0,0,0,0,0,0,0,0,0,0,0,0,0,2,1,1,0,0,1,1,0,0
254,162,159,1,1,180,42514,0,85787.07812,90042.40625,98.21356201,0,0,0,9.770307541,0.06473012269,-1.13628757,-0.002577420324,0.004689241759,-0.0007316548144,-28.23085976,-8.086520195,-6.931145191,33.42218399,-13.32499599,6449.941895,12.26496315,0.1305260062,32.86999893,0,0,0,0,0,0,0,0,0,0,0,0,0,0,0,2,1,1,0,0,1,1,0,0
254,162,160,1,1,180,42764,0,85787.49219,90052.46875,98.31291962,0,0,0,9.778331757,0.04790792987,-1.110173225,-0.001435091603,0.004095654003,0.0004998634104,-28.41795349,-8.15735054,-6.931125164,33.10385132,-13.3488884,6341.328125,12.26237965,0.1303390115,32.86999893,0,0,0,0,0,0,0,0,0,0,0,0,0,0,0,2,1,1,0,0,1,1,0,0
254,162,161,1,1,180,43014,0,85788.97656,90022.25781,98.31464386,0,0,0,9.759895325,0.07101973891,-1.148496509,0.005071697757,0.005520668346,0.0008979399572,-28.52695084,-8.228182793,-6.44290638,33.31962204,-13.12873173,6414.890137,12.26237965,0.1305260062,32.88000107,0,0,0,0,0,0,0,0,0,0,0,0,0,0,0,2,1,1,0,0,1,1,0,0
254,162,162,1,1,180,43264,0,85789.8125,90062.55469,98.31483459,0,0,0,9.790692329,0.07101973891,-1.144774199,-0.001563080819,0.005021813326,0.002244849922,-28.7003231,-8.01568985,-6.512568951,33.68363953,-12.89833069,6539.543945,12.26237965,0.1303390115,32.88000107,0,0,0,0,0,0,0,0,0,0,0,0,0,0,0,2,1,1,0,0,1,1,0,0
254,162,163,1,1,180,43514,0,85789.0625,89981.96875,98.41713715,0,0,0,9.748885155,0.06143556908,-1.140456676,0.001513195224,0.005005184561,0.001945536234,-28.89081383,-8.299010277,-6.86135006,33.8678093,-12.8543663,6602.869141,12.26237965,0.1305260062,32.88000107,0,0,0,0,0,0,0,0,0,0,0,0,0,0,0,2,1,1,0,0,1,1,0,0
254,162,164,1,1,180,43764,0,85791.00781,90042.40625,98.41672516,0,0,0,9.780575752,0.05799125507,-1.13196981,0.006701293401,0.005271241069,8.314252773e-05,-28.31925964,-8.01568985,-6.652080059,33.25803757,-13.33436871,6393.869141,12.26088905,0.1303390115,32.88000107,0,0,0,0,0,0,0,0,0,0,0,0,0,0,0,2,1,1,0,0,1,1,0,0
254,162,165,1,1,180,44014,0,85786.85938,90052.46875,98.41759491,0,0,0,9.795497894,0.04703661427,-1.12215662,-3.224931061e-05,0.003902158933,0.001676960848,-28.22743416,-8.086520195,-7.140394211,41.80810165,14.05483055,1416.71106,12.26088905,0.1303390115,32.88000107,0,0,0,0,0,0,0,0,0,0,0,0,0,0,0,2,1,1,0,1,1,1,0,0
254,162,166,1,1,180,44264,0,85790.61719,90042.40625,98.41609955,0,0,0,9.774622917,0.08449748158,-1.146561027,0.001080853748,0.004340043291,6.651409058e-05,-28.5063591,-7.944859982,-7.000842094,41.80809402,14.05483818,1415.727051,12.26088905,0.1305260062,32.88000107,0,0,0,0,0,0,0,0,0,0,0,0,0,0,0,2,1,1,0,1,1,1,0,0
254,162,167,1,1,180,44514,0,85790.71094,90042.40625,98.41562653,0,0,0,9.771946907,0.06517938524,-1.139563084,0.008613573387,0.006019523833,0.001845765393,-27.94501305,-8.29901123,-7.070658207,41.80810165,14.05482864,1416.546997,12.26088905,0.1305260062,32.88999939,0,0,0,0,0,0,0,0,0,0,0,0,0,0,0,2,1,1,0,1,1,1,0,0
254,162,168,1,1,180,44764,0,85790.61719,89992.03906,98.51776123,0,0,0,9.784593582,0.06413111836,-1.152367711,-0.00119725347,0.004323414993,0.001945536584,-28.60848236,-8.15735054,-6.791612625,41.80809402,14.05483532,1415.866943,12.25850964,0.1305260062,32.88999939,0,0,0,0,0,0,0,0,0,0,0,0,0,0,0,2,1,1,0,1,1,1,0,0
254,162,169,1,1,180,45014,0,85788.03125,89981.96875,98.21290588,0,0,0,9.755133629,0.05933900177,-1.138818622,-0.0003159418993,0.005071697757,0.002012050478,-28.68996811,-8.015691757,-6.791535378,41.80809784,14.05483246,1416.100952,12.25850964,0.1303390115,32.88999939,0,0,0,0,0,0,0,0,0,0,0,0,0,0,0,2,1,1,0,1,1,1,0,0
254,162,170,1,1,180,45264,0,85787.22656,90042.40625,98.41742706,0,0,0,9.768821716,0.08299995214,-1.154601216,0.002643934917,0.005221354775,0.0003325703437,-28.12877274,-8.157349586,-6.931106567,41.80810547,14.05482197,1416.845947,12.25850964,0.1303390115,32.88999939,0,0,0,0,0,0,0,0,0,0,0,0,0,0,0,2,1,1,0,1,1,1,0,0
254,162,171,1,1,180,45514,0,85790.78125,90052.46875,98.41655731,0,0,0,9.775284767,0.05744050071,-1.131504178,0.005681589246,0.004943498876,0.001493348158,-28.23086357,-8.440672874,-6.791631699,41.80812454,14.05480766,1418.224976,12.25850964,0.1303390115,32.88999939,0,0,0,0,0,0,0,0,0,0,0,0,0,0,0,2,1,1,0,1,1,1,0,0
254,162,172,1,1,180,45764,0,85790.59375,90062.55469,98.4159317,0,0,0,9.75379467,0.06502959877,-1.137925386,0.00512158405,0.003791302443,0.001712737372,-28.99647522,-8.369842529,-6.721895695,41.80814743,14.05478764,1420.133057,12.25624943,0.1305260062,32.90000153,0,0,0,0,0,0,0,0,0,0,0,0,0,0,0,2,1,1,0,1,1,1,0,0
254,162,173,1,1,180,46014,0,85790.92188,90052.46875,97.5969162,0,0,0,9.764656067,0.0636818558,-1.156685352,0.005736839026,0.00480564218,0.001463309396,-28.13047409,-8.01568985,-6.68696785,41.80817413,14.05475998,1422.619019,12.25624943,0.1305260062,32.90000153,0,0,0,0,0,0,0,0,0,0,0,0,0,0,0,2,1,1,0,1,1,1,0,0
254,162,174,1,1,180,46264,0,85792.63281,90052.46875,98.41733551,0,0,0,9.759596825,0.06458037347,-1.136734366,0.001812508446,0.005936380476,0.0004489700659,-28.32612801,-8.15735054,-6.861388206,41.80820847,14.05473328,1425.121948,12.25624943,0.1303390115,32.90000153,0,0,0,0,0,0,0,0,0,0,0,0,0,0,0,2,1,1,0,1,1,1,0,0
254,162,175,1,1,180,46514,0,85790.33594,90042.40625,98.51810455,0,0,0,9.761383057,0.06143550947,-1.145965338,0.002893362194,0.004556214437,0.001646223478,-28.13891983,-8.299012184,-6.721895695,41.80821991,14.05472279,1426.135986,12.25624943,0.1305260062,32.90000153,0,0,0,0,0,0,0,0,0,0,0,0,0,0,0,2,1,1,0,1,1,1,0,0
254,162,176,1,1,180,46764,0,85792.45312,90052.46875,98.31523895,0,0,0,9.770971298,0.04790792987,-1.166769505,0.002789559308,0.004660015926,0.001289970241,-28.0335083,-8.582332611,-6.791592121,41.80825424,14.05468941,1429.095947,12.25362015,0.1305260062,32.90000153,0,0,0,0,0,0,0,0,0,0,0,0,0,0,0,2,1,1,0,1,1,1,0,0
254,162,177,1,1,180,47014,0,85788.89062,89981.96875,98.51856995,0,0,0,9.794856071,0.06742564589,-1.149241209,0.002145078965,0.004988555331,4.988555884e-05,-28.60507202,-8.440670967,-6.65208149,41.80829239,14.05465889,1431.993042,12.25362015,0.1303390115,32.90000153,0,0,0,0,0,0,0,0,0,0,0,0,0,0,0,2,1,1,0,1,1,1,0,0
254,162,178,1,1,180,47264,0,85789.6875,90052.46875,97.70173645,0,0,0,9.785931587,0.0573922433,-1.150283456,0.0009810826741,0.005670325365,0.001679480192,-28.62560272,-8.369846344,-6.582437515,41.80832672,14.05462837,1434.69397,12.25362015,0.1303390115,32.90999985,0,0,0,0,0,0,0,0,0,0,0,0,0,0,0,2,1,1,0,1,1,1,0,0
254,162,179,1,1,180,47514,0,85788.91406,90052.46875,97.69933319,0,0,0,9.767333984,0.07446402311,-1.127652049,0.0004157129151,0.004639356397,0.00197879388,-28.4350872,-8.228181839,-6.721952438,41.8083725,14.05458927,1438.276978,12.25362015,0.1303390115,32.90999985,0,0,0,0,0,0,0,0,0,0,0,0,0,0,0,2,1,1,0,1,1,1,0,0
254,162,180,1,1,180,47764,0,85790.90625,90052.46875,98.41569519,0,0,0,9.756324768,0.06922270358,-1.128545165,0.003857816337,0.004772385117,0.0002660562459,-28.61533737,-8.582334518,-6.861408234,41.80840683,14.05455971,1441.112061,12.25232697,0.1303390115,32.90999985,0,0,0,0,0,0,0,0,0,0,0,0,0,0,0,2,1,1,0,1,1,1,0,0
254,162,181,1,1,180,48014,0,85792.28906,90052.46875,98.41684723,0,0,0,9.774579048,0.06765712053,-1.134428859,0.006498223171,0.005901612341,0.001547963941,-28.72438049,-8.440676689,-7.280029297,41.80844116,14.05452919,1443.921021,12.25232697,0.1305260062,32.90999985,0,0,0,0,0,0,0,0,0,0,0,0,0,0,0,2,1,1,0,1,1,1,0,0
254,162,182,1,1,180,48264,0,85790.13281,90052.46875,97.90506744,0,0,0,9.779278755,0.07212595642,-1.130735278,0.0012702042,0.004754683003,0.001338864095,-28.82313156,-8.299015045,-6.721991062,41.80846405,14.05450726,1445.880005,12.25232697,0.1305260062,32.90999985,0,0,0,0,0,0,0,0,0,0,0,0,0,0,0,2,1,1,0,1,1,1,0,0
254,162,183,1,1,180,48514,0,85791.80469,90042.40625,98.41357422,0,0,0,9.80065918,0.04975485802,-1.126907587,0.001446680981,0.005487411283,0.003159418236,-28.1526413,-8.369846344,-6.861486912,41.80848312,14.05449104,1447.402954,12.25232697,0.1303390115,32.91999817,0,0,0,0,0,0,0,0,0,0,0,0,0,0,0,2,1,1,0,1,1,1,0,0
254,162,184,1,1,180,48764,0,85790.64062,90052.46875,98.41492462,0,0,0,9.747549057,0.08689349145,-1.134649873,0.002377878176,0.005287869368,0.0007649118197,-28.05055237,-8.01568985,-6.791691303,41.80849457,14.0544796,1448.292969,12.24989414,0.1303390115,32.91999817,0,0,0,0,0,0,0,0,0,0,0,0,0,0,0,2,1,1,0,1,1,1,0,0
254,162,185,1,1,180,49014,0,85790.75781,90052.46875,98.51770782,0,0,0,9.778938293,0.08000487089,-1.147603512,0.004057358485,0.006119294092,0.001080853748,-27.95526886,-8.511507034,-6.931206226,41.8085022,14.05447388,1449.011963,12.24989414,0.1303390115,32.91999817,0,0,0,0,0,0,0,0,0,0,0,0,0,0,0,2,1,1,0,1,1,1,0,0
254,162,186,1,1,180,49264,0,85789.49219,90062.55469,98.41635895,0,0,0,9.784145355,0.05888977274,-1.140456557,0.003841187805,0.004672613926,0.001745994203,-28.14923096,-8.157352448,-6.721952438,41.8085022,14.05447388,1448.990967,12.24989414,0.1303390115,32.91999817,0,0,0,0,0,0,0,0,0,0,0,0,0,0,0,2,1,1,0,1,1,1,0,0
254,162,187,1,1,180,49514,0,85790.9375,90062.55469,98.51823425,0,0,0,9.777464867,0.05531387031,-1.142225266,0.0007578572258,0.005562995095,0.001596337999,-28.26839828,-8.2281847,-6.86160183,41.80849457,14.05448151,1448.22998,12.24989414,0.1303390115,32.91999817,0,0,0,0,0,0,0,0,0,0,0,0,0,0,0,2,1,1,0,1,1,1,0,0
254,162,188,1,1,180,49764,0,85788.29688,89981.96875,98.41573334,0,0,0,9.77626133,0.06338234991,-1.127205372,0.005304497667,0.005520668812,0.001995422412,-28.43852997,-8.299015045,-7.001000404,41.80848312,14.05448818,1447.56897,12.24758244,0.1303390115,32.91999817,0,0,0,0,0,0,0,0,0,0,0,0,0,0,0,2,1,1,0,1,1,1,0,0
254,162,189,1,1,180,50014,0,85790.63281,90042.40625,98.51776123,0,0,0,9.775961876,0.07326599956,-1.137181044,0.006285579875,0.004340043291,0.001745994319,-28.73129272,-8.086522102,-7.140554428,41.80847549,14.05449486,1446.970947,12.24758244,0.1303390115,32.93000031,0,0,0,0,0,0,0,0,0,0,0,0,0,0,0,2,1,1,0,1,1,1,0,0
254,162,190,1,1,180,50264,0,85791.64062,90042.40625,97.80158997,0,0,0,9.764060974,0.06278333813,-1.150432229,0.001612966182,0.00488878414,0.002244850155,-28.35012054,-8.369848251,-6.652252197,41.80847168,14.05449963,1446.48999,12.24758244,0.1303390115,32.93000031,0,0,0,0,0,0,0,0,0,0,0,0,0,0,0,2,1,1,0,1,1,1,0,0
254,162,191,1,1,180,50514,0,85788.89844,90062.55469,98.6199646,0,0,0,9.767780304,0.06487984955,-1.162343502,0.001213881769,0.006268952042,0.0005487411399,-28.83003426,-7.944858551,-6.722029209,41.80845642,14.05451012,1445.51001,12.24758244,0.1303390115,32.93000031,0,0,0,0,0,0,0,0,0,0,0,0,0,0,0,2,1,1,0,1,1,1,0,0
254,162,192,1,1,180,50764,0,85790.48438,90062.55469,98.51782227,0,0,0,9.757367134,0.06982171535,-1.142689943,0.003309075255,0.006252323277,0.0004157129442,-28.43853951,-7.944858551,-6.861485481,41.80844498,14.05452347,1444.31604,12.24586868,0.1303390115,32.93000031,0,0,0,0,0,0,0,0,0,0,0,0,0,0,0,2,1,1,0,1,1,1,0,0
254,162,193,1,1,180,51014,0,85788.54688,90052.46875,98.41540527,0,0,0,9.762171745,0.06083202362,-1.144535422,0.0004998633522,0.005562995095,0.001693085418,-28.6394043,-8.157354355,-6.582513809,41.80842972,14.05453587,1443.015015,12.24586868,0.1305260062,32.93000031,0,0,0,0,0,0,0,0,0,0,0,0,0,0,0,2,1,1,0,1,1,1,0,0
254,162,194,1,1,180,51264,0,85790,90042.40625,97.80256653,0,0,0,9.771601677,0.06671553105,-1.150408149,0.003021026496,0.004909167998,0.001218709396,-28.54069138,-8.369848251,-6.931283474,41.80841446,14.05455017,1441.845947,12.24586868,0.1305260062,32.93000031,0,0,0,0,0,0,0,0,0,0,0,0,0,0,0,2,1,1,0,1,1,1,0,0
254,162,195,1,1,180,51514,0,85788.10156,89981.96875,98.51895142,0,0,0,9.789260864,0.06826134771,-1.159322739,0.004531539045,0.005801743828,0.001407523523,-28.07100105,-8.299016953,-6.931323528,41.80839539,14.05456448,1440.404053,12.24586868,0.1305260062,32.93999863,0,0,0,0,0,0,0,0,0,0,0,0,0,0,0,2,1,1,0,1,1,1,0,0
254,162,196,1,1,180,51764,0,85787.91406,90002.11719,98.51834869,0,0,0,9.771796227,0.04616079479,-1.142987609,0.006684665103,0.003891072934,-0.0002826848067,-28.45223808,-7.944858074,-7.070839405,41.8083725,14.0545826,1438.724976,12.24496269,0.1305260062,32.93999863,0,0,0,0,0,0,0,0,0,0,0,0,0,0,0,2,1,1,0,1,1,1,0,0
254,162,197,1,1,180,52014,0,85791.60938,89992.03906,99.12635803,0,0,0,9.770011902,0.06592811644,-1.15728128,0.006152552087,0.006086037494,0.001147367875,-28.16291046,-8.086522102,-6.722029686,41.80835342,14.05460167,1437.055054,12.24496269,0.1303390115,32.93999863,0,0,0,0,0,0,0,0,0,0,0,0,0,0,0,2,1,1,0,1,1,1,0,0
254,162,198,1,1,180,52264,0,85792.25781,89992.03906,98.51790619,0,0,0,9.781764984,0.02519538999,-1.129885435,0.006568265613,0.004323414993,0.00241113524,-28.35351562,-8.157352448,-6.652271271,41.80875397,14.05425167,1470.256958,12.24496269,0.130152002,32.93999863,0,0,0,0,0,0,0,0,0,0,0,0,0,0,0,2,1,1,0,1,1,1,0,0
254,162,199,1,1,180,52514,0,85792.04688,90062.55469,99.12734222,0,0,0,9.757661819,0.05709271133,-1.146263361,-3.325709986e-05,0.00523798354,0.001513195341,-28.3432045,-8.299014091,-6.721971512,41.80887222,14.05415154,1479.616943,12.24496269,0.1303390115,32.93999863,0,0,0,0,0,0,0,0,0,0,0,0,0,0,0,2,1,1,0,1,1,1,0,0
254,162,200,1,1,180,52764,0,85790.54688,90012.1875,98.51926422,0,0,0,9.768522263,0.06892319769,-1.157430053,0.003990844358,0.00435667159,0.002278107218,-28.26845932,-7.732361794,-6.652328968,41.80896378,14.05407047,1487.343018,12.24410248,0.1305260062,32.93999863,0,0,0,0,0,0,0,0,0,0,0,0,0,0,0,2,1,1,0,1,1,1,0,0
254,162,201,1,1,180,53014,0,85790.875,90052.46875,98.6193924,0,0,0,9.778938293,0.05724246427,-1.149687529,0.003758044913,0.005038441159,0.001912279637,-28.55099869,-8.08652401,-7.001099586,41.80899811,14.05403709,1490.44104,12.24410248,0.1305260062,32.95000076,0,0,0,0,0,0,0,0,0,0,0,0,0,0,0,2,1,1,0,1,1,1,0,0
254,162,202,1,1,180,53264,0,85790.9375,89992.03906,98.51691437,0,0,0,9.75766468,0.0503538698,-1.147156358,0.001862394158,0.003841187805,0.001114110812,-28.07099152,-8.228183746,-6.72205019,41.80902863,14.05401421,1492.947998,12.24410248,0.1307130009,32.95000076,0,0,0,0,0,0,0,0,0,0,0,0,0,0,0,2,1,1,0,1,1,1,0,0
254,162,203,1,1,180,53514,0,85791.65625,90002.11719,98.41623688,0,0,0,9.793370247,0.05859023705,-1.143434525,0.001978793647,0.005038440228,0.0004822271876,-28.46252823,-8.228185654,-6.512832165,41.8090477,14.05399704,1494.72998,12.24410248,0.1305260062,32.95000076,0,0,0,0,0,0,0,0,0,0,0,0,0,0,0,2,1,1,0,1,1,1,0,0
254,162,204,1,1,180,53764,0,85788.39844,90002.11719,98.51880646,0,0,0,9.785931587,0.05993803963,-1.149688005,0.002411135007,0.004240273032,0.0004157130024,-28.08462334,-8.157354355,-6.373333454,41.80906677,14.05398273,1496.160034,12.24328518,0.1307130009,32.95000076,0,0,0,0,0,0,0,0,0,0,0,0,0,0,0,2,1,1,0,1,1,1,0,0
254,162,205,1,1,180,54014,0,85789.51562,90072.61719,98.51790619,0,0,0,9.759300232,0.0374751389,-1.13077867,0.001928908168,0.004971927032,0.001895651221,-28.07783127,-8.228186607,-6.791845322,41.80907059,14.05397415,1496.875977,12.24328518,0.1305260062,32.95000076,0,0,0,0,0,0,0,0,0,0,0,0,0,0,0,2,1,1,0,1,1,1,0,0
254,162,206,1,1,180,54264,0,85793.49219,90062.55469,98.51641846,0,0,0,9.774029732,0.03208401427,-1.13077867,-0.0006817692774,0.005869867746,6.65140542e-05,-28.65323639,-8.228185654,-6.652349949,41.80906677,14.05397892,1496.567017,12.24328518,0.1305260062,32.95000076,0,0,0,0,0,0,0,0,0,0,0,0,0,0,0,2,1,1,0,1,1,1,0,0
254,162,207,1,1,180,54514,0,85791.6875,90052.46875,99.22855377,0,0,0,9.778491974,0.05589468777,-1.145221114,0.001612966298,0.004589470569,0.002061936539,-28.3637867,-8.157354355,-6.931360722,41.80907059,14.05397892,1496.712036,12.24328518,0.1303390115,32.95000076,0,0,0,0,0,0,0,0,0,0,0,0,0,0,0,2,1,1,0,1,1,1,0,0
254,162,208,1,1,180,54764,0,85790.53906,90062.55469,98.51802826,0,0,0,9.771055222,0.05289966613,-1.161598921,-0.002959876088,0.004988555796,0.001330281375,-28.17995453,-8.157355309,-6.722126007,41.80907059,14.05397797,1496.962036,12.24250889,0.1303390115,32.95999908,0,0,0,0,0,0,0,0,0,0,0,0,0,0,0,2,1,1,0,1,1,1,0,0
254,162,209,1,1,180,55014,0,85789.17969,90052.46875,98.41651154,0,0,0,9.78994751,0.06982168555,-1.138818741,-0.0006983976346,0.005470782518,0.0008147975896,-28.74851036,-8.086521149,-6.652349949,41.80907059,14.05397415,1497.199951,12.24250889,0.1303390115,32.95999908,0,0,0,0,0,0,0,0,0,0,0,0,0,0,0,2,1,1,0,1,1,1,0,0
254,162,210,1,1,180,55264,0,85790.65625,90052.46875,99.12779236,0,0,0,9.767035484,0.06742561609,-1.155941248,-1.818989404e-11,0.004489699379,0.001812508563,-28.46592903,-8.29901886,-6.861643314,41.8090744,14.05397415,1497.380005,12.24250889,0.1303390115,32.95999908,0,0,0,0,0,0,0,0,0,0,0,0,0,0,0,2,1,1,0,1,1,1,0,0
254,162,211,1,1,180,55514,0,85791.99219,90022.25781,99.2282486,0,0,0,9.756325722,0.05963850394,-1.148645639,0.001114110695,0.004772385117,0.001978793647,-28.45568275,-8.228186607,-6.86158371,41.8090744,14.0539732,1497.478027,12.24250889,0.1305260062,32.95999908,0,0,0,0,0,0,0,0,0,0,0,0,0,0,0,2,1,1,0,1,1,1,0,0
254,162,212,1,1,180,55764,0,85792.73438,90072.61719,99.22850037,0,0,0,9.765398979,0.0587400198,-1.143732071,0.002061936306,0.004938669503,0.002743705409,-28.60551453,-7.909441471,-7.001139641,41.80907059,14.05397415,1497.490967,12.24177074,0.1305260062,32.97000122,0,0,0,0,0,0,0,0,0,0,0,0,0,0,0,2,1,1,0,1,1,1,0,0
254,162,213,1,1,180,56014,0,85789.52344,89992.03906,99.2283783,0,0,0,9.769864082,0.06502959877,-1.153112411,0.001263767481,0.005454154219,0.001430052565,-28.87599373,-8.44067955,-6.791777611,41.80907059,14.05397415,1497.457031,12.24177074,0.1305260062,32.97000122,0,0,0,0,0,0,0,0,0,0,0,0,0,0,0,2,1,1,0,1,1,1,0,0
254,162,214,1,1,180,56264,0,85789.25781,90032.33594,98.92483521,0,0,0,9.741596222,0.04346521571,-1.135394216,0.003674903186,0.005254612304,0.001928908168,-27.98589134,-7.944857121,-6.861624241,41.80907059,14.05397606,1497.404053,12.24177074,0.1303390115,32.97000122,0,0,0,0,0,0,0,0,0,0,0,0,0,0,0,2,1,1,0,1,1,1,0,0
254,162,215,1,1,180,56515,0,85789,90022.25781,98.51677704,0,0,0,9.779384613,0.05140213668,-1.144327521,0.0003990844707,0.004672613461,0.0002660562459,-28.16287422,-8.299017906,-6.791789055,41.80907059,14.05397606,1497.33606,12.24177074,0.1305260062,32.97000122,0,0,0,0,0,0,0,0,0,0,0,0,0,0,0,2,1,1,0,1,1,1,0,0
254,162,216,1,1,180,56765,0,85790.85156,90012.1875,99.22775269,0,0,0,9.755579948,0.05918924883,-1.145072103,0.004306786694,0.004572843201,0.0002993133967,-28.46252251,-8.086522102,-7.001139641,41.80907059,14.05397797,1497.284058,12.24106979,0.1305260062,32.97000122,0,0,0,0,0,0,0,0,0,0,0,0,0,0,0,2,1,1,0,1,1,1,0,0
254,162,217,1,1,180,57015,0,85792.16406,90052.46875,99.22775269,0,0,0,9.772541046,0.04421398044,-1.138223171,0.003375589382,0.005387639627,0.001795880147,-28.74849129,-8.369851112,-6.72210598,41.80907059,14.05397797,1497.215942,12.24106979,0.1303390115,32.97999954,0,0,0,0,0,0,0,0,0,0,0,0,0,0,0,2,1,1,0,1,1,1,0,0
254,162,218,1,1,180,57265,0,85786.97656,89992.03906,98.51947021,0,0,0,9.787264824,0.06671553105,-1.160244584,0.003896437353,0.00461736368,0.00125303946,-28.08123207,-8.086522102,-6.722106457,41.80907059,14.05397606,1497.222046,12.24106979,0.1303390115,32.97999954,0,0,0,0,0,0,0,0,0,0,0,0,0,0,0,2,1,1,0,1,1,1,0,0
254,162,219,1,1,180,57516,0,85790.41406,90032.33594,98.51823425,0,0,0,9.787264824,0.06424221396,-1.146719575,0.005561435129,0.004291230347,0.002265769523,-28.6600666,-8.01568985,-6.861662388,41.80907059,14.05397606,1497.255005,12.24106979,0.1305260062,32.97999954,0,0,0,0,0,0,0,0,0,0,0,0,0,0,0,2,1,1,0,1,1,1,0,0
254,162,220,1,1,180,57766,0,85791.59375,90002.11719,98.5173111,0,0,0,9.784741402,0.06832419336,-1.135543108,0.005404269323,0.004589471035,0.001346910023,-28.18677521,-8.369852066,-7.001199722,41.80907059,14.05397606,1497.232056,12.24040413,0.1303390115,32.97999954,0,0,0,0,0,0,0,0,0,0,0,0,0,0,0,2,1,1,0,1,1,1,0,0
254,162,221,1,1,180,58016,0,85789.03906,90002.11719,98.7220459,0,0,0,9.779979706,0.05544545874,-1.164874792,0.004389928654,0.005620439071,-0.0007316548727,-28.17998314,-8.157354355,-6.791883469,41.80907059,14.05397606,1497.227051,12.24040413,0.1303390115,32.97999954,0,0,0,0,0,0,0,0,0,0,0,0,0,0,0,2,1,1,0,1,1,1,0,0
254,162,222,1,1,180,58266,0,85790.3125,90072.61719,99.22800446,0,0,0,9.763613701,0.04900603369,-1.15177238,0.005686953198,0.00435667159,0.0003990844125,-28.56124115,-8.157355309,-6.652369022,41.80907059,14.05397415,1497.248047,12.24040413,0.1305260062,32.97999954,0,0,0,0,0,0,0,0,0,0,0,0,0,0,0,2,1,1,0,1,1,1,0,0
254,162,223,1,1,180,58517,0,85789.05469,90072.61719,99.22889709,0,0,0,9.754836082,0.06143556908,-1.14000988,-7.275957614e-11,0.004323414527,0.000914568489,-28.37747955,-8.157355309,-6.722165585,41.80907059,14.05397415,1497.245972,12.24040413,0.1303390115,32.97999954,0,0,0,0,0,0,0,0,0,0,0,0,0,0,0,2,1,1,0,1,1,1,0,0
254,162,224,1,1,180,58767,0,85789.8125,90072.61719,99.32814026,0,0,0,9.778641701,0.0479577966,-1.167852521,0.004273528699,0.004655985162,0.00116399664,-28.55100441,-8.01568985,-6.791825294,41.80907059,14.0539732,1497.220947,12.23856735,0.1305260062,32.97999954,0,0,0,0,0,0,0,0,0,0,0,0,0,0,0,2,1,1,0,1,1,1,0,0
254,162,225,1,1,180,59017,0,85792.38281,90022.25781,98.61869049,0,0,0,9.782804489,0.04121892527,-1.139861226,-0.00234462088,0.004306786694,0.0008979398408,-28.08122253,-8.29901886,-6.652348042,41.80905533,14.05399036,1495.884033,12.23856735,0.1303390115,32.99000168,0,0,0,0,0,0,0,0,0,0,0,0,0,0,0,2,1,1,0,1,1,1,0,0
254,162,226,1,1,180,59267,0,85790.08594,90072.61719,99.22916412,0,0,0,9.779979706,0.07146899402,-1.14194572,-0.001097482163,0.005537297111,0.001563080703,-28.76573372,-8.01568985,-7.001240253,41.80902863,14.05401897,1493.630005,12.23856735,0.1305260062,32.99000168,0,0,0,0,0,0,0,0,0,0,0,0,0,0,0,2,1,1,0,1,1,1,0,0
254,162,227,1,1,180,59520,0,85789.25,90062.55469,99.3296814,0,0,0,9.785485268,0.05799122527,-1.158025622,0.00204530824,0.004805641714,0.0008646830101,-27.81223869,-8.086522102,-6.722203732,41.80901337,14.05403709,1492.301025,12.23802662,0.1305260062,32.99000168,0,0,0,0,0,0,0,0,0,0,0,0,0,0,0,2,1,1,0,1,1,1,0,0
254,162,228,1,1,180,59770,0,85792.69531,90072.61719,98.5167923,0,0,0,9.747313499,0.0486339964,-1.143091321,-0.003998907283,0.004547143821,0.001547963941,-28.37064552,-8.299019814,-6.931401253,41.80900192,14.0540514,1491.089966,12.23802662,0.1305260062,32.99000168,0,0,0,0,0,0,0,0,0,0,0,0,0,0,0,2,1,1,0,1,1,1,0,0
254,162,229,1,1,180,60020,0,85790.8125,90072.61719,98.61871338,0,0,0,9.769564629,0.06592814624,-1.155643106,-0.002327992115,0.004140501842,0.001912279287,-28.28557396,-8.299020767,-6.722183228,41.80899429,14.05406094,1490.286987,12.23802662,0.130152002,32.99000168,0,0,0,0,0,0,0,0,0,0,0,0,0,0,0,2,1,1,0,1,1,1,0,0
254,162,230,1,1,180,60270,0,85792.28906,90002.11719,99.22619629,0,0,0,9.764076233,0.07228054106,-1.143799424,-0.001682162168,0.005475609098,0.0009269057773,-28.09828377,-8.086522102,-6.791962147,41.80899048,14.05406857,1489.584961,12.23802662,0.1305260062,32.99000168,0,0,0,0,0,0,0,0,0,0,0,0,0,0,0,2,1,1,0,1,1,1,0,0
254,162,231,1,1,180,60522,0,85792.27344,89992.03906,98.61873627,0,0,0,9.776705742,0.06592811644,-1.141647696,0.003342332086,0.004406557418,0.001795879914,-28.29233742,-8.440689087,-6.652462959,41.80898285,14.05407715,1488.874023,12.23751259,0.1303390115,32.99000168,0,0,0,0,0,0,0,0,0,0,0,0,0,0,0,2,1,1,0,1,1,1,0,0
254,162,232,1,1,180,60772,0,85793.51562,90022.25781,98.61815643,0,0,0,9.773283958,0.07251726836,-1.141796708,0.008879627101,0.004872156773,0.001263767364,-28.89146423,-8.334434509,-6.896502495,41.80897141,14.05408478,1488.036011,12.23751259,0.1303390115,33,0,0,0,0,0,0,0,0,0,0,0,0,0,0,0,2,1,1,0,1,1,1,0,0
254,162,233,1,1,180,61022,0,85789.89062,90052.46875,98.5182724,0,0,0,9.773582458,0.08255066723,-1.13509655,0.00350861717,0.004905412439,0.001380167087,-28.57159424,-8.228188515,-6.512907505,41.80896759,14.05409241,1487.27002,12.23751259,0.1303390115,33,0,0,0,0,0,0,0,0,0,0,0,0,0,0,0,2,1,1,0,1,1,1,0,0
254,162,234,1,1,180,61272,0,85791.50781,90012.1875,98.61909485,0,0,0,9.755879402,0.05514595658,-1.140009761,-0.007050492335,0.005321126431,0.000266056275,-28.56815529,-8.228187561,-6.512888432,41.80896378,14.05409718,1486.842041,12.23751259,0.1307130009,33,0,0,0,0,0,0,0,0,0,0,0,0,0,0,0,2,1,1,0,1,1,1,0,0
254,162,235,1,1,180,61522,0,85792.51562,90042.40625,98.72104645,0,0,0,9.785422325,0.03672631457,-1.171003103,-0.004892003722,0.004102415871,0.0002059790859,-28.19365311,-8.157355309,-6.652444363,41.80896378,14.05410099,1486.437988,12.23702431,0.1305260062,33,0,0,0,0,0,0,0,0,0,0,0,0,0,0,0,2,1,1,0,1,1,1,0,0
254,162,236,1,1,180,61772,0,85787.73438,90012.1875,98.51753998,0,0,0,9.759002686,0.05933903158,-1.11469841,-0.003608388361,0.003309075255,0.002012050943,-28.57847214,-7.874024868,-6.582705975,41.80895996,14.05410385,1486,12.23702431,0.1305260062,33,0,0,0,0,0,0,0,0,0,0,0,0,0,0,0,2,1,1,0,1,1,1,0,0
254,162,237,1,1,180,62022,0,85790.48438,90002.11719,98.61956787,0,0,0,9.794857025,0.07536253333,-1.101298332,0.01094156411,0.004938669968,0.002427763771,-28.49001122,-8.01568985,-6.931539536,41.80895615,14.05410767,1485.598999,12.23702431,0.1305260062,33,0,0,0,0,0,0,0,0,0,0,0,0,0,0,0,2,1,1,0,1,1,1,0,0
254,162,238,1,1,180,62272,0,85790.99219,90012.1875,98.6195755,0,0,0,9.744124413,0.08884030581,-1.135245204,0.02223232761,0.005770096555,0.0004157129442,-28.57156754,-8.299020767,-6.861702442,41.80894852,14.05411339,1484.949951,12.23702431,0.1303390115,33.00999832,0,0,0,0,0,0,0,0,0,0,0,0,0,0,0,2,1,1,0,1,1,1,0,0
254,162,239,1,1,180,62522,0,85792.07031,89992.03906,98.61882782,0,0,0,9.761307716,0.04616526887,-1.104975343,0.03076578304,0.005079256371,0.002854058286,-28.48311806,-8.440689087,-6.79198122,41.80894852,14.05412197,1484.274048,12.23656082,0.1307130009,33.00999832,0,0,0,0,0,0,0,0,0,0,0,0,0,0,0,2,1,1,0,1,1,1,0,0
254,162,240,1,1,180,62772,0,85789.17188,89992.03906,98.72198486,0,0,0,9.767782211,0.08779200912,-1.17023468,0.01687794551,0.006285580806,0.002178336028,-28.01315498,-8.299023628,-6.861780643,41.8089447,14.05412483,1483.916992,12.23656082,0.1303390115,33.00999832,0,0,0,0,0,0,0,0,0,0,0,0,0,0,0,2,1,1,0,1,1,1,0,0
254,162,241,1,1,180,63022,0,85784.96875,90002.11719,98.72396088,0,0,0,9.780815125,0.02683300525,-1.104761124,0.01814332046,0.005252466537,0.00128736929,-28.86450005,-8.157357216,-6.931499004,41.80894089,14.05412674,1483.694946,12.23656082,0.1303390115,33.00999832,0,0,0,0,0,0,0,0,0,0,0,0,0,0,0,2,1,1,0,1,1,1,0,0
254,162,242,1,1,180,63272,0,85791.0625,90012.1875,98.62005615,0,0,0,9.774028778,0.01261619478,-1.10725379,0.01757634431,0.004689242225,0.002061936073,-28.76914406,-8.228189468,-6.443185806,41.80894089,14.05412769,1483.411011,12.23656082,0.1305260062,33.00999832,0,0,0,0,0,0,0,0,0,0,0,0,0,0,0,2,1,1,0,1,1,1,0,0
254,162,243,1,1,180,63522,0,85789.40625,90012.1875,98.72077942,0,0,0,9.800956726,0.01246644184,-1.124674082,-0.008281001821,0.004057358485,0.00244439207,-28.58536911,-8.511523247,-6.861780167,41.80893707,14.05413151,1483.019043,12.23515701,0.1305260062,33.00999832,0,0,0,0,0,0,0,0,0,0,0,0,0,0,0,2,1,1,0,1,1,1,0,0
254,162,244,1,1,180,63772,0,85790.19531,90002.11719,98.6197052,0,0,0,9.774435043,0.06591454893,-1.1072855,-0.008804043755,0.002225198084,0.0008384805988,-28.98407936,-8.15735817,-6.513077259,41.80893707,14.05413246,1482.807007,12.23515701,0.1303390115,33.00999832,0,0,0,0,0,0,0,0,0,0,0,0,0,0,0,2,1,1,0,1,1,1,0,0
254,162,245,1,1,180,64022,0,85787.17188,90012.1875,98.72292328,0,0,0,9.767631531,0.05095288157,-1.117527485,-0.0003658273781,0.004323414527,0.001114110928,-27.53977776,-8.228190422,-6.722280979,41.80893326,14.05413628,1482.485962,12.23515701,0.1305260062,33.02000046,0,0,0,0,0,0,0,0,0,0,0,0,0,0,0,2,1,1,0,1,1,1,0,0
254,162,246,1,1,180,64272,0,85789.51562,90012.1875,98.72182465,0,0,0,9.768671989,0.07341574878,-1.164725661,-0.0002993132512,0.004223643802,0.002810220001,-28.30267715,-8.299024582,-6.792039394,41.80892944,14.05413914,1482.045044,12.23515701,0.1303390115,33.02000046,0,0,0,0,0,0,0,0,0,0,0,0,0,0,0,2,1,1,0,1,1,1,0,0
254,162,247,1,1,180,64522,0,85791.28125,90052.46875,98.61810303,0,0,0,9.786081314,0.08913978189,-1.147603393,0.008231116459,0.005603811238,0.001346910023,-28.49338341,-8.228191376,-6.233962536,41.80892944,14.05414104,1481.730957,12.2335825,0.1305260062,33.02000046,0,0,0,0,0,0,0,0,0,0,0,0,0,0,0,2,1,1,0,1,1,1,0,0
254,162,248,1,1,180,64772,0,85789.59375,90012.1875,98.61883545,0,0,0,9.775069237,0.04915584624,-1.159365773,-0.007266662549,0.004140500445,0.001928908168,-28.69447517,-8.724030495,-6.861858368,41.80892944,14.054142,1481.42395,12.2335825,0.1305260062,33.02000046,0,0,0,0,0,0,0,0,0,0,0,0,0,0,0,2,1,1,0,1,1,1,0,0
254,162,249,1,1,180,65022,0,85791.45312,90012.1875,98.72092438,0,0,0,9.778185844,0.04297059402,-1.172544837,0.006546596996,0.004208527505,0.001854331931,-28.67724228,-8.157356262,-6.931520462,41.80892944,14.05414581,1481.177002,12.2335825,0.1305260062,33.02000046,0,0,0,0,0,0,0,0,0,0,0,0,0,0,0,2,1,1,0,1,1,1,0,0
254,162,250,1,1,180,65272,0,85790.33594,90072.61719,98.61943817,0,0,0,9.762274742,0.05963850394,-1.121845126,0.0002327992406,0.006551635452,0.003192675533,-28.77607536,-7.944857597,-6.861780167,41.80892563,14.05414677,1481.003052,12.2335825,0.1305260062,33.02000046,0,0,0,0,0,0,0,0,0,0,0,0,0,0,0,2,1,1,0,1,1,1,0,0
254,162,251,1,1,180,65522,0,85789.28906,90012.1875,98.72193146,0,0,0,9.778641701,0.05993798003,-1.122440934,0.0002494277142,0.005237982143,0.00294324779,-28.58875656,-8.086523056,-7.071079254,41.80892181,14.05414867,1480.781006,12.23256874,0.1303390115,33.02999878,0,0,0,0,0,0,0,0,0,0,0,0,0,0,0,2,1,1,0,1,1,1,0,0
254,162,252,1,1,180,65772,0,85790.03125,89992.03906,98.51804352,0,0,0,9.77179718,0.05859026685,-1.159514546,-0.007931804284,0.005337754264,0.001430052682,-29.08116341,-8.01568985,-7.001408577,41.80892181,14.05415058,1480.635986,12.23256874,0.1305260062,33.02999878,0,0,0,0,0,0,0,0,0,0,0,0,0,0,0,2,1,1,0,1,1,1,0,0
254,162,253,1,1,180,66022,0,85789.8125,90072.61719,98.61988831,0,0,0,9.770608902,0.05020408705,-1.127652049,-0.004539585672,0.004888785072,0.001330281491,-28.78297615,-8.157357216,-6.722300529,41.80892181,14.05415154,1480.473022,12.23256874,0.1305260062,33.02999878,0,0,0,0,0,0,0,0,0,0,0,0,0,0,0,2,1,1,0,1,1,1,0,0
254,162,254,1,1,180,66272,0,85791.77344,90052.46875,98.72077179,0,0,0,9.758703232,0.06383158267,-1.150283575,0.006368723698,0.005437526386,0.001130739343,-28.50029373,-7.874022007,-6.93159771,41.808918,14.05415535,1480.25,12.23256874,0.1303390115,33.02999878,0,0,0,0,0,0,0,0,0,0,0,0,0,0,0,2,1,1,0,1,1,1,0,0
254,162,255,1,1,180,66522,0,85789.22656,90002.11719,98.61992645,0,0,0,9.76837635,0.08566370606,-1.152042866,-0.0006127356901,0.006062858272,0.00174145936,-28.59221458,-8.369857788,-6.861817837,41.80891418,14.05415726,1479.94104,12.23232841,0.1303390115,33.02999878,0,0,0,0,0,0,0,0,0,0,0,0,0,0,0,2,1,1,0,1,1,1,0,0
254,162,0,1,1,180,66772,0,85791.82812,90002.11719,98.51719666,0,0,0,9.788607597,0.09138610214,-1.131076574,0.0001829137909,0.004622727633,0.0001995422208,-28.39805222,-8.086523056,-6.722280502,41.80891418,14.05415821,1479.735962,12.23232841,0.1303390115,33.02999878,0,0,0,0,0,0,0,0,0,0,0,0,0,0,0,2,1,1,0,1,1,1,0,0
254,162,1,1,1,180,67022,0,85789.45312,90012.1875,98.61943054,0,0,0,9.784592628,0.06353210658,-1.143285632,0.006202436984,0.00530449627,0.001612966182,-28.21752167,-8.582363129,-6.513057709,41.80891037,14.05416203,1479.493042,12.23232841,0.1303390115,33.04000092,0,0,0,0,0,0,0,0,0,0,0,0,0,0,0,2,1,1,0,1,1,1,0,0
254,162,2,1,1,180,67272,0,85789.20312,90012.1875,98.72197723,0,0,0,9.779236794,0.063681826,-1.149092436,0.01792554371,0.00470587099,0.002926619491,-28.40833092,-8.01568985,-6.861858368,41.80891037,14.05416298,1479.258057,12.23232841,0.1305260062,33.04000092,0,0,0,0,0,0,0,0,0,0,0,0,0,0,0,2,1,1,0,1,1,1,0,0
254,162,3,1,1,180,67522,0,85785.57031,90072.61719,98.62168884,0,0,0,9.755284309,0.08285017312,-1.148496509,0.006185808685,0.005487412214,0.0008813114837,-28.22099876,-8.15735817,-6.652597904,41.80891037,14.05416489,1479.051025,12.23209953,0.1305260062,33.04000092,0,0,0,0,0,0,0,0,0,0,0,0,0,0,0,2,1,1,0,1,1,1,0,0
254,162,4,1,1,180,67772,0,85787.86719,90012.1875,98.6188736,0,0,0,9.765847206,0.05110260099,-1.13569212,0.004406557884,0.005670324434,0.0005653696135,-28.03366661,-8.440695763,-6.792137146,41.80891037,14.05416489,1478.848999,12.23209953,0.1303390115,33.04000092,0,0,0,0,0,0,0,0,0,0,0,0,0,0,0,2,1,1,0,1,1,1,0,0
254,162,5,1,1,180,68022,0,85789.27344,90012.1875,98.72193909,0,0,0,9.76777935,0.05918927863,-1.160407782,0.006634778343,0.005537297111,0.002710448578,-27.92460823,-8.369858742,-6.652540207,41.80891037,14.05416489,1478.69104,12.23209953,0.1305260062,33.04000092,0,0,0,0,0,0,0,0,0,0,0,0,0,0,0,2,1,1,0,1,1,1,0,0
254,162,6,1,1,180,68272,0,85789.20312,90022.25781,98.61952972,0,0,0,9.777748108,0.07805811614,-1.161301136,0.002560791792,0.004672613461,0.00261067762,-28.31638145,-8.369862556,-6.931638718,41.80891037,14.05416679,1478.524048,12.23209953,0.1305260062,33.04000092,0,0,0,0,0,0,0,0,0,0,0,0,0,0,0,2,1,1,0,1,1,1,0,0
254,162,7,1,1,180,68522,0,85788.92969,90012.1875,98.72210693,0,0,0,9.777897835,0.05155188963,-1.115740776,0.005387639627,0.006052780896,0.002061936073,-28.21755409,-8.440693855,-6.652578354,41.80891037,14.05416679,1478.342041,12.2306776,0.1305260062,33.04999924,0,0,0,0,0,0,0,0,0,0,0,0,0,0,0,2,1,1,0,1,1,1,0,0
254,162,8,1,1,180,68772,0,85786.57031,90002.11719,98.82466888,0,0,0,9.774772644,0.02684269845,-1.151176572,0.003641645191,0.005171468947,0.00276033394,-28.50713348,-8.299026489,-6.861878395,41.80890656,14.05416965,1478.057983,12.2306776,0.1303390115,33.04999924,0,0,0,0,0,0,0,0,0,0,0,0,0,0,0,2,1,1,0,1,1,1,0,0
254,162,9,1,1,180,69022,0,85792.58594,90012.1875,98.72039032,0,0,0,9.777282715,0.050020542,-1.117210388,-0.008187668398,0.004617364611,0.001356028719,-28.22440338,-8.01568985,-6.652616978,41.80890656,14.05416965,1477.963989,12.2306776,0.1307130009,33.04999924,0,0,0,0,0,0,0,0,0,0,0,0,0,0,0,2,1,1,0,1,1,1,0,0
254,162,10,1,1,180,69272,0,85791.71094,90022.25781,98.72044373,0,0,0,9.779434204,0.03626262397,-1.067259789,0.01347446349,0.005715919193,0.001527678454,-28.0405159,-8.582365036,-6.79217577,41.80890274,14.05417252,1477.697021,12.2306776,0.1303390115,33.04999924,0,0,0,0,0,0,0,0,0,0,0,0,0,0,0,2,1,1,0,1,1,1,0,0
254,162,11,1,1,180,69522,0,85786.00781,90022.25781,98.72346497,0,0,0,9.770309448,0.000635980221,-1.093556046,0.01016002335,0.004157129675,0.002660562983,-28.03360939,-8.157359123,-6.582858562,41.80890274,14.05417633,1477.290039,12.2293272,0.1303390115,33.04999924,0,0,0,0,0,0,0,0,0,0,0,0,0,0,0,2,1,1,0,1,1,1,0,0
254,162,12,1,1,180,69772,0,85789.96094,90012.1875,98.61981964,0,0,0,9.778938293,0.09902349114,-1.144923449,0.01682806201,0.005420897622,0.002261478454,-28.62318802,-8.440699577,-6.861995697,41.80890274,14.05417633,1477.110962,12.2293272,0.1305260062,33.04999924,0,0,0,0,0,0,0,0,0,0,0,0,0,0,0,2,1,1,0,1,1,1,0,0
254,162,13,1,1,180,70022,0,85788.58594,90012.1875,98.51818848,0,0,0,9.771351814,0.08000487089,-1.141349792,0.01589686424,0.005686953664,0.002361249644,-28.12900543,-8.440695763,-6.652617455,41.80889893,14.05417919,1476.780029,12.2293272,0.1305260062,33.06000137,0,0,0,0,0,0,0,0,0,0,0,0,0,0,0,2,1,1,0,1,1,1,0,0
254,162,14,1,1,180,70272,0,85790.39062,90002.11719,98.72142029,0,0,0,9.750559807,0.07800013572,-1.199436545,0.005235301331,0.004737518262,0.0009784004651,-28.23124313,-8.157360077,-6.513134956,41.80889893,14.0541811,1476.510986,12.2293272,0.1305260062,33.06000137,0,0,0,0,0,0,0,0,0,0,0,0,0,0,0,2,1,1,0,1,1,1,0,0
254,162,15,1,1,180,70522,0,85791.04688,90022.25781,98.72232056,0,0,0,9.750821114,0.06413108855,-1.151474595,0.0006485121557,0.005055069458,0.0004157130024,-28.14269638,-8.157360077,-6.931736946,41.80889511,14.05418205,1476.271973,12.22948933,0.1305260062,33.06000137,0,0,0,0,0,0,0,0,0,0,0,0,0,0,0,2,1,1,0,1,1,1,0,0
254,162,16,1,1,180,70772,0,85789.35156,90012.1875,98.72166443,0,0,0,9.773582458,0.07551229,-1.16040802,0.001496566692,0.006019523367,0.001114110695,-27.80360794,-8.01568985,-6.268981934,41.80889511,14.05418205,1476.089966,12.22948933,0.1305260062,33.06000137,0,0,0,0,0,0,0,0,0,0,0,0,0,0,0,2,1,1,0,1,1,1,0,0
254,162,17,1,1,180,71022,0,85789.33594,90002.11719,98.82336426,0,0,0,9.76792717,0.04720906168,-1.198375106,0.01413424034,0.004473071545,0.001745994203,-28.53464127,-8.369867325,-6.722511292,41.80889511,14.05418396,1475.887939,12.22948933,0.1303390115,33.06000137,0,0,0,0,0,0,0,0,0,0,0,0,0,0,0,2,1,1,0,1,1,1,0,0
254,162,18,1,1,180,71272,0,85789.26562,90012.1875,98.7213974,0,0,0,9.77551651,0.07176849991,-1.130480766,-0.01182287559,0.005121583119,0.001413424034,-28.33005142,-8.44069767,-7.001478672,41.80889511,14.05418587,1475.718994,12.22948933,0.1305260062,33.06999969,0,0,0,0,0,0,0,0,0,0,0,0,0,0,0,2,1,1,0,1,1,1,0,0
254,162,19,1,1,180,71522,0,85789.82812,90012.1875,98.82313538,0,0,0,9.766066551,0.05081222206,-1.171967387,-8.062308189e-05,0.004676141776,0.001370593091,-27.93821144,-8.157359123,-6.792137146,41.8088913,14.05418587,1475.536987,12.22867966,0.1305260062,33.06999969,0,0,0,0,0,0,0,0,0,0,0,0,0,0,0,2,1,1,0,1,1,1,0,0
254,162,20,1,1,180,71772,0,85789.58594,90002.11719,98.72179413,0,0,0,9.754814148,0.06184852868,-1.146556497,-0.0006288603181,0.005643617827,0.002596064471,-28.23467827,-8.08652401,-6.792197227,41.8088913,14.05418682,1475.38501,12.22867966,0.1303390115,33.06999969,0,0,0,0,0,0,0,0,0,0,0,0,0,0,0,2,1,1,0,1,1,1,0,0
254,162,21,1,1,180,72022,0,85791.44531,90022.25781,98.82238007,0,0,0,9.784593582,0.05574496463,-1.129289627,0.01541463565,0.004639356397,0.00116399629,-28.42544937,-8.228193283,-6.722435474,41.8088913,14.05418873,1475.175049,12.22867966,0.1303390115,33.06999969,0,0,0,0,0,0,0,0,0,0,0,0,0,0,0,2,1,1,0,1,1,1,0,0
254,162,22,1,1,180,72272,0,85786.3125,90012.1875,98.72174835,0,0,0,9.782811165,0.03224346042,-1.122897267,0.00255757384,0.005389785394,0.0008754109731,-28.04042053,-8.228193283,-6.513133049,41.8088913,14.05418873,1475.064941,12.22867966,0.1305260062,33.06999969,0,0,0,0,0,0,0,0,0,0,0,0,0,0,0,2,1,1,0,1,1,1,0,0
254,162,23,1,1,180,72522,0,85791.98438,90012.1875,98.72097778,0,0,0,9.771202087,0.1012697816,-1.129587531,0.002926619025,0.00557055464,0.00219496456,-28.14608765,-8.08652401,-6.722473621,41.8088913,14.05418873,1474.930054,12.22766972,0.1305260062,33.06999969,0,0,0,0,0,0,0,0,0,0,0,0,0,0,0,2,1,1,0,1,1,1,0,0
254,162,24,1,1,180,72772,0,85794.39844,90022.25781,98.7195282,0,0,0,9.772849083,0.04282540455,-1.128798008,0.0104003828,0.005450122058,0.001128723612,-28.41864777,-8.086524963,-6.722396374,41.8088913,14.05419064,1474.791016,12.22766972,0.1303390115,33.06999969,0,0,0,0,0,0,0,0,0,0,0,0,0,0,0,2,1,1,0,1,1,1,0,0
254,162,25,1,1,180,73022,0,85790.10156,90012.1875,98.72154999,0,0,0,9.786698341,0.05299042165,-1.120135188,0.0006288603763,0.005305001047,0.001273845322,-28.70827866,-8.299028397,-6.792177677,41.8088913,14.05419064,1474.666992,12.22766972,0.1303390115,33.08000183,0,0,0,0,0,0,0,0,0,0,0,0,0,0,0,2,1,1,0,1,1,1,0,0
254,162,26,1,1,180,73272,0,85792.22656,90022.25781,98.9234314,0,0,0,9.783997536,0.06188479438,-1.154601455,0.004389928654,0.00470587099,0.003159418935,-28.23466301,-8.36986351,-6.792196751,41.8088913,14.05419159,1474.552002,12.22766972,0.1305260062,33.08000183,0,0,0,0,0,0,0,0,0,0,0,0,0,0,0,2,1,1,0,1,1,1,0,0
254,162,27,1,1,180,73522,0,85788.99219,90012.1875,98.82250214,0,0,0,9.77923584,0.08389844,-1.168001294,0.0146164652,0.004207015503,0.0009311970207,-28.05066109,-8.22819519,-6.513190746,41.8088913,14.05419159,1474.397949,12.22646904,0.1305260062,33.08000183,0,0,0,0,0,0,0,0,0,0,0,0,0,0,0,2,1,1,0,1,1,1,0,0
254,162,28,1,1,180,73772,0,85790.50781,90042.40625,98.72221375,0,0,0,9.778045654,0.0762610808,-1.180359364,-0.003309074789,0.004971926566,0.0007150261081,-28.5312252,-8.08652401,-6.652731419,41.8088913,14.05419159,1474.218994,12.22646904,0.1303390115,33.08000183,0,0,0,0,0,0,0,0,0,0,0,0,0,0,0,2,1,1,0,1,1,1,0,0
254,162,29,1,1,180,74022,0,85791.28906,90022.25781,98.72099304,0,0,0,9.781020164,0.04975479841,-1.155345678,-0.003142789472,0.004838899709,0.00166285201,-28.24493217,-8.22819519,-6.86201334,41.8088913,14.05419159,1474.168945,12.22646904,0.1305260062,33.08000183,0,0,0,0,0,0,0,0,0,0,0,0,0,0,0,2,1,1,0,1,1,1,0,0
254,162,30,1,1,180,74272,0,85790.32031,90012.1875,98.72229004,0,0,0,9.76420784,0.06907292455,-1.148496628,0.005603810772,0.005919752643,-3.32569798e-05,-28.24154091,-8.299030304,-6.513190746,41.8088913,14.05419159,1474.081055,12.22646904,0.1305260062,33.08000183,0,0,0,0,0,0,0,0,0,0,0,0,0,0,0,2,1,1,0,1,1,1,0,0
254,162,31,1,1,180,74522,0,85790.25,90012.1875,98.72147369,0,0,0,9.776857376,0.06547886133,-1.154452324,0.008147974499,0.004872156773,0.001080853748,-28.62662697,-8.511535645,-6.722492218,41.8088913,14.0541935,1473.848999,12.225811,0.1305260062,33.09000015,0,0,0,0,0,0,0,0,0,0,0,0,0,0,0,2,1,1,0,1,1,1,0,0
254,162,32,1,1,180,74772,0,85790.21875,90012.1875,98.82295227,0,0,0,9.763912201,0.04705930874,-1.136734128,-0.01092493534,0.00322593376,0.002776963636,-28.55535507,-8.086526871,-6.72262907,41.8088913,14.0541935,1473.718994,12.225811,0.1305260062,33.09000015,0,0,0,0,0,0,0,0,0,0,0,0,0,0,0,2,1,1,0,1,1,1,0,0
254,162,33,1,1,180,75022,0,85792.79688,90022.25781,98.923172,0,0,0,9.771647453,0.07641080767,-1.105169535,-0.003275817726,0.005254612304,0.002278106986,-28.15287018,-8.440700531,-6.862034321,41.8088913,14.0541935,1473.597046,12.225811,0.1303390115,33.09000015,0,0,0,0,0,0,0,0,0,0,0,0,0,0,0,2,1,1,0,1,1,1,0,0
254,162,34,1,1,180,75272,0,85786.90625,90022.25781,98.82450867,0,0,0,9.78355217,0.08509646356,-1.1659168,0.00116399629,0.005770095624,0.0004988555447,-28.34035873,-8.369866371,-6.722492695,41.80888748,14.0541935,1473.480957,12.225811,0.1305260062,33.09000015,0,0,0,0,0,0,0,0,0,0,0,0,0,0,0,2,1,1,0,1,1,1,0,0
254,162,35,1,1,180,75522,0,85789.40625,90022.25781,98.72111511,0,0,0,9.77551651,0.06847391278,-1.148943305,-0.0004822271294,0.005836610217,0.001662851777,-28.15294647,-8.511538506,-6.582991123,41.80888748,14.0541954,1473.369995,12.22494411,0.1305260062,33.09000015,0,0,0,0,0,0,0,0,0,0,0,0,0,0,0,2,1,1,0,1,1,1,0,0
254,162,36,1,1,180,75772,0,85790.92969,90022.25781,98.82261658,0,0,0,9.779680252,0.06053705141,-1.135692,0.009943854064,0.005537296645,0.00251090643,-27.5275898,-7.696932793,-6.687602043,41.80888748,14.0541954,1473.27002,12.22494411,0.1305260062,33.09999847,0,0,0,0,0,0,0,0,0,0,0,0,0,0,0,2,1,1,0,1,1,1,0,0
254,162,37,1,1,180,76022,0,85791.00781,90002.11719,98.00730133,0,0,0,9.767037392,0.05334892124,-1.125418663,8.314270235e-05,0.005088326521,0.002893362194,-28.34378815,-7.944854736,-6.652751446,41.80888748,14.0541954,1473.182007,12.22494411,0.1305260062,33.09999847,0,0,0,0,0,0,0,0,0,0,0,0,0,0,0,2,1,1,0,1,1,1,0,0
254,162,38,1,1,180,76272,0,85791.35938,90012.1875,98.10923767,0,0,0,9.751564026,0.06682663411,-1.148496389,-0.0006651409203,0.006568264216,0.0009478255524,-27.86665344,-8.228196144,-6.513228416,41.80888748,14.05419636,1473.104004,12.22494411,0.1305260062,33.09999847,0,0,0,0,0,0,0,0,0,0,0,0,0,0,0,2,1,1,0,1,1,1,0,0
254,162,39,1,1,180,76522,0,85791.64062,90022.25781,98.8216095,0,0,0,9.795452118,0.05185139552,-1.118271828,-0.007399690803,0.005088327453,0.002993133385,-28.2518158,-8.157360077,-6.722531319,41.80888367,14.05419636,1473.041992,12.22387981,0.1305260062,33.09999847,0,0,0,0,0,0,0,0,0,0,0,0,0,0,0,2,1,1,0,1,1,1,0,0
254,162,40,1,1,180,76772,0,85789.60156,90012.1875,98.72114563,0,0,0,9.774002075,0.03759765998,-1.146267891,-0.001144848298,0.005837114528,0.00191883021,-27.96547127,-8.440702438,-6.722531319,41.80888367,14.05419636,1473.001953,12.22387981,0.1305260062,33.09999847,0,0,0,0,0,0,0,0,0,0,0,0,0,0,0,2,1,1,0,1,1,1,0,0
254,162,41,1,1,180,77022,0,85791.32812,90012.1875,98.72097015,0,0,0,9.794560432,0.03777464479,-1.161598802,0.002527534962,0.005021812394,0.002327992581,-28.07117081,-7.944854259,-6.792350769,41.80888367,14.05419636,1472.973022,12.22387981,0.1303390115,33.09999847,0,0,0,0,0,0,0,0,0,0,0,0,0,0,0,2,1,1,0,1,1,1,0,0
254,162,42,1,1,180,77272,0,85791.08594,90022.25781,98.82243347,0,0,0,9.801104546,0.05140213668,-1.122887254,-0.01641234756,0.004489700776,0.001928907936,-28.54837799,-8.157361984,-6.792350769,41.80888367,14.05419827,1472.917969,12.22387981,0.1305260062,33.09999847,0,0,0,0,0,0,0,0,0,0,0,0,0,0,0,2,1,1,0,1,1,1,0,0
254,162,43,1,1,180,77522,0,85790.02344,90012.1875,98.10985565,0,0,0,9.769417763,0.07356553525,-1.141945481,-0.0169777181,0.005055068992,0.00131365296,-28.25863266,-8.228197098,-6.722569466,41.80888367,14.05419827,1472.874023,12.22407341,0.1303390115,33.11000061,0,0,0,0,0,0,0,0,0,0,0,0,0,0,0,2,1,1,0,1,1,1,0,0
254,162,44,1,1,180,77772,0,85791.0625,90012.1875,98.21169281,0,0,0,9.75766468,0.06248380616,-1.149687767,-0.001646223362,0.005720210262,0.001014339621,-28.26891518,-8.299033165,-7.071439266,41.80888367,14.05419827,1472.81604,12.22407341,0.1303390115,33.11000061,0,0,0,0,0,0,0,0,0,0,0,0,0,0,0,2,1,1,0,1,1,1,0,0
254,162,45,1,1,180,78022,0,85788.98438,90022.25781,98.21266174,0,0,0,9.75037384,0.07506305724,-1.126758456,-0.003408846911,0.004988555331,0.001845765626,-28.44951248,-8.228197098,-6.862093449,41.80888367,14.05420017,1472.77002,12.22407341,0.130152002,33.11000061,0,0,0,0,0,0,0,0,0,0,0,0,0,0,0,2,1,1,0,1,1,1,0,0
254,162,46,1,1,180,78272,0,85792.5,90012.1875,98.00702667,0,0,0,9.766685486,0.1019605622,-1.120130301,-0.001029895386,0.004771848209,0.002574738348,-28.36091614,-8.086525917,-6.79237175,41.80887985,14.05420017,1472.692993,12.22407341,0.1307130009,33.11000061,0,0,0,0,0,0,0,0,0,0,0,0,0,0,0,2,1,1,0,1,1,1,0,0
254,162,47,1,1,180,78522,0,85794.67969,90012.1875,98.82085419,0,0,0,9.762125969,0.06413108855,-1.110231638,-0.01258778758,0.005437525455,0.001646223478,-28.35747719,-8.157361031,-7.001636982,41.80887985,14.05420113,1472.625,12.22305298,0.1305260062,33.11999893,0,0,0,0,0,0,0,0,0,0,0,0,0,0,0,2,1,1,0,1,1,1,0,0
254,162,48,1,1,180,78772,0,85789.83594,90012.1875,98.72167969,0,0,0,9.790097237,0.03507912531,-1.114549518,0.004306785762,0.005537296645,0.001579709351,-28.35754395,-8.01568985,-6.792352676,41.80887985,14.05420113,1472.595947,12.22305298,0.1305260062,33.11000061,0,0,0,0,0,0,0,0,0,0,0,0,0,0,0,2,1,1,0,1,1,1,0,0
254,162,49,1,1,180,79022,0,85792.13281,90012.1875,98.71974182,0,0,0,9.785633087,0.06458037347,-1.138520718,-0.002278107218,0.003758045379,0.001862394158,-28.64039803,-8.157361031,-6.862093449,41.80887985,14.05420113,1472.503052,12.22305298,0.1305260062,33.11999893,0,0,0,0,0,0,0,0,0,0,0,0,0,0,0,2,1,1,0,1,1,1,0,0
254,162,50,1,1,180,79272,0,85791.57812,90012.1875,98.92375183,0,0,0,9.767632484,0.05604444072,-1.133458853,0.00241113524,0.00478901295,0.001114110579,-28.55519867,-8.015690804,-6.72262907,41.80887985,14.05420303,1472.395996,12.22305298,0.1303390115,33.11999893,0,0,0,0,0,0,0,0,0,0,0,0,0,0,0,2,1,1,0,1,1,1,0,0
254,162,51,1,1,180,79522,0,85790.40625,90082.70312,98.72107697,0,0,0,9.798321724,0.04955675825,-1.116595626,-0.01148333307,0.00396509748,0.001287369174,-28.44952583,-8.157362938,-6.652808666,41.80887604,14.05420303,1472.267944,12.22208309,0.1305260062,33.11999893,0,0,0,0,0,0,0,0,0,0,0,0,0,0,0,2,1,1,0,1,1,1,0,0
254,162,52,1,1,180,79772,0,85793.23438,90092.77344,98.82250977,0,0,0,9.769416809,0.07656058669,-1.135096431,-0.006318837404,0.005138212815,0.002461020835,-28.73235703,-8.511539459,-6.652789116,41.80887604,14.05420494,1472.151001,12.22208309,0.1303390115,33.11999893,0,0,0,0,0,0,0,0,0,0,0,0,0,0,0,2,1,1,0,1,1,1,0,0
254,162,53,1,1,180,80022,0,85790.71875,90022.25781,98.10952759,0,0,0,9.784443855,0.06443062425,-1.145816684,0.008646829985,0.005670325365,0.001862394041,-28.1666584,-8.511540413,-6.931876183,41.80887604,14.05420494,1472.035034,12.22208309,0.1303390115,33.11999893,0,0,0,0,0,0,0,0,0,0,0,0,0,0,0,2,1,1,0,1,1,1,0,0
254,162,54,1,1,180,80272,0,85789.39062,90092.77344,98.11051178,0,0,0,9.752754211,0.08135264367,-1.114103079,0.02120136097,0.004190386739,0.001696108724,-28.17688179,-8.157361984,-6.722648144,41.80887604,14.05420685,1471.946045,12.22208309,0.1305260062,33.13000107,0,0,0,0,0,0,0,0,0,0,0,0,0,0,0,2,1,1,0,1,1,1,0,0
254,162,55,1,1,180,80522,0,85792.78125,90022.25781,98.72029114,0,0,0,9.766067505,0.03614552692,-1.180630088,0.02117163129,0.005772614852,0.0001451216667,-28.45985794,-8.086527824,-6.931914806,41.80887222,14.0542078,1471.831055,12.22116184,0.1305260062,33.13000107,0,0,0,0,0,0,0,0,0,0,0,0,0,0,0,2,1,1,0,1,1,1,0,0
254,162,56,1,1,180,80772,0,85790.78906,90022.25781,98.82267761,0,0,0,9.759896278,0.04121895507,-1.17574358,-0.01534812339,0.005287868436,0.001064225333,-27.84446144,-8.015690804,-7.106349945,41.80887222,14.0542078,1471.722046,12.22116184,0.1305260062,33.13000107,0,0,0,0,0,0,0,0,0,0,0,0,0,0,0,2,1,1,0,1,1,1,0,0
254,162,57,1,1,180,81022,0,85791.58594,90012.1875,98.8223114,0,0,0,9.760390282,0.07104386389,-1.157939434,8.582464943e-05,0.004274066072,0.003673293162,-28.17349434,-8.228198051,-6.862154007,41.80887222,14.05420971,1471.621948,12.22116184,0.1303390115,33.13000107,0,0,0,0,0,0,0,0,0,0,0,0,0,0,0,2,1,1,0,1,1,1,0,0
254,162,58,1,1,180,81272,0,85791.25,90092.77344,98.72097015,0,0,0,9.775593758,0.060841389,-1.141801357,-0.0167872943,0.004771848209,0.0002746387327,-28.56214333,-8.157361984,-6.931954384,41.80887222,14.05420971,1471.517944,12.22116184,0.1303390115,33.13000107,0,0,0,0,0,0,0,0,0,0,0,0,0,0,0,2,1,1,0,1,1,1,0,0
254,162,59,1,1,180,81522,0,85791.42969,90082.70312,98.82199097,0,0,0,9.77179718,0.09632793814,-1.169788003,-0.01247138903,0.005271240138,0.0004655985977,-28.55526543,-8.086525917,-6.931914806,41.80887222,14.05421162,1471.379028,12.22076893,0.1307130009,33.13000107,0,0,0,0,0,0,0,0,0,0,0,0,0,0,0,2,1,1,0,1,1,1,0,0
254,162,60,1,1,180,81772,0,85791.00781,90082.70312,98.10939026,0,0,0,9.743994713,0.08740630746,-1.15233171,-0.002660562983,0.00414402876,0.002289696364,-28.66792297,-8.157363892,-6.652962208,41.80887222,14.05421257,1471.324951,12.22076893,0.1307130009,33.13999939,0,0,0,0,0,0,0,0,0,0,0,0,0,0,0,2,1,1,0,1,1,1,0,0
254,162,61,1,1,180,82022,0,85791.66406,90082.70312,98.72081757,0,0,0,9.735645294,0.04735878482,-1.176785946,0.006684665103,0.006135924719,0.001446681446,-27.99958992,-8.299038887,-6.652961731,41.80886841,14.05421448,1471.270996,12.22076893,0.1303390115,33.13999939,0,0,0,0,0,0,0,0,0,0,0,0,0,0,0,2,1,1,0,1,1,1,0,0
254,162,62,1,1,180,82272,0,85789.96875,90082.70312,98.82306671,0,0,0,9.78295517,0.04061994329,-1.151921034,-0.0001163997804,0.0045894715,0.001662851777,-28.47700119,-8.015688896,-6.792488098,41.80886841,14.05421448,1471.254028,12.22076893,0.1303390115,33.13999939,0,0,0,0,0,0,0,0,0,0,0,0,0,0,0,2,1,1,0,1,1,1,0,0
254,162,63,1,1,180,82522,0,85789.76562,90092.77344,99.43083954,0,0,0,9.766293526,0.04930559918,-1.126311898,0.007399691269,0.005703581963,0.002045307774,-28.18711662,-8.086526871,-6.652942657,41.80886841,14.05421638,1471.261963,12.22111797,0.1305260062,33.13999939,0,0,0,0,0,0,0,0,0,0,0,0,0,0,0,2,1,1,0,1,1,1,0,0
254,162,64,1,1,180,82772,0,85792.99219,90092.77344,98.7218399,0,0,0,9.755580902,0.02759140171,-1.162045836,-0.007100377697,0.003774674376,0.0009810824413,-28.86924934,-7.944853306,-6.862310886,41.80886459,14.05421734,1471.261963,12.22111797,0.1303390115,33.13999939,0,0,0,0,0,0,0,0,0,0,0,0,0,0,0,2,1,1,0,1,1,1,0,0
254,162,65,1,1,180,83022,0,85790.49219,90082.70312,99.02565765,0,0,0,9.77179718,0.04705930874,-1.155196548,-0.007000607438,0.003658273956,0.001064225333,-27.90751648,-8.51154995,-6.722745895,41.80886459,14.05421734,1471.296021,12.22111797,0.1303390115,33.13999939,0,0,0,0,0,0,0,0,0,0,0,0,0,0,0,2,1,1,0,1,1,1,0,0
254,162,66,1,1,180,83272,0,85793.3125,90092.77344,98.21101379,0,0,0,9.779087067,0.08884030581,-1.135245323,0.003076276276,0.005188097712,0.001696108724,-28.27235985,-8.228199005,-6.792410374,41.80886459,14.05421925,1471.285034,12.22111797,0.1305260062,33.15000153,0,0,0,0,0,0,0,0,0,0,0,0,0,0,0,2,1,1,0,1,1,1,0,0
254,162,67,1,1,180,83522,0,85791.71094,90082.70312,99.4294281,0,0,0,9.741446495,0.06937243044,-1.139563203,-0.003491989104,0.004822270479,0.0001330279774,-27.81545448,-8.157365799,-7.001815796,41.80886078,14.05422115,1471.307983,12.22144985,0.1305260062,33.15000153,0,0,0,0,0,0,0,0,0,0,0,0,0,0,0,2,1,1,0,1,1,1,0,0
254,162,68,1,1,180,83772,0,85791.95312,90072.61719,99.53020477,0,0,0,9.767034531,0.03687612712,-1.142392278,0.006235694047,0.005104955286,0.001247139066,-28.19049835,-8.086526871,-6.583200455,41.80886078,14.05422115,1471.286987,12.22144985,0.1305260062,33.15000153,0,0,0,0,0,0,0,0,0,0,0,0,0,0,0,2,1,1,0,1,1,1,0,0
254,162,69,1,1,180,84022,0,85794.78906,90092.77344,99.528862,0,0,0,9.786525726,0.02639341168,-1.145220995,0.009544769302,0.00478901295,0.001114110695,-28.18711662,-8.369874001,-6.443654537,41.80886078,14.05422115,1471.21106,12.22144985,0.1305260062,33.15000153,0,0,0,0,0,0,0,0,0,0,0,0,0,0,0,2,1,1,0,1,1,1,0,0
254,162,70,1,1,180,84272,0,85793.28906,90082.70312,99.42868805,0,0,0,9.773880959,0.06892319769,-1.132118464,-0.01149030495,0.006535008084,0.0002993133967,-28.08819008,-8.086526871,-6.792448997,41.80886078,14.05422115,1471.140015,12.22144985,0.1307130009,33.15000153,0,0,0,0,0,0,0,0,0,0,0,0,0,0,0,2,1,1,0,1,1,1,0,0
254,162,71,1,1,180,84522,0,85793.07031,90082.70312,99.53003693,0,0,0,9.778762817,0.03396730125,-1.123600245,-0.01183547359,0.004660016857,0.001064225216,-27.80182648,-8.369873047,-6.583161354,41.80886078,14.05422211,1471.072021,12.22176456,0.1305260062,33.15999985,0,0,0,0,0,0,0,0,0,0,0,0,0,0,0,2,1,1,0,1,1,1,0,0
254,162,72,1,1,180,84772,0,85793.71875,90082.70312,99.52937317,0,0,0,9.765100479,0.06233405322,-1.141052127,-0.005204726942,0.005138212815,0.001928908052,-27.51205635,-8.369873047,-6.652904987,41.80885696,14.05422211,1470.985962,12.22176456,0.1303390115,33.15999985,0,0,0,0,0,0,0,0,0,0,0,0,0,0,0,2,1,1,0,1,1,1,0,0
254,162,73,1,1,180,85022,0,85791.79688,90082.70312,98.82077789,0,0,0,9.780426025,0.06248380616,-1.149092197,0.001629594946,0.005504039116,0.00256079156,-28.66790962,-8.228199005,-6.513437748,41.80885696,14.05422211,1470.909058,12.22176456,0.1307130009,33.15999985,0,0,0,0,0,0,0,0,0,0,0,0,0,0,0,2,1,1,0,1,1,1,0,0
254,162,74,1,1,180,85272,0,85789.20312,90082.70312,99.43061829,0,0,0,9.768226624,0.05349864438,-1.143136501,0.01149030402,0.005587182473,0.0004323414178,-27.71654129,-7.874015808,-6.862269878,41.80885696,14.05422401,1470.845947,12.22176456,0.1305260062,33.15999985,0,0,0,0,0,0,0,0,0,0,0,0,0,0,0,2,1,1,0,1,1,1,0,0
254,162,75,1,1,180,85523,0,85795.71875,90082.70312,99.42935181,0,0,0,9.772541046,0.0615853183,-1.154452324,0.006219065282,0.005620438606,0.0009977112059,-28.73984146,-8.121947289,-6.374041557,41.80885696,14.05422401,1470.79895,12.22206402,0.1305260062,33.15999985,0,0,0,0,0,0,0,0,0,0,0,0,0,0,0,2,1,1,0,1,1,1,0,0
254,162,76,1,1,180,85773,0,85790,90092.77344,99.42932129,0,0,0,9.760295868,0.04456797615,-1.123311877,-0.0004514894972,0.004144028295,0.000757857284,-28.28267097,-7.944852352,-6.652943134,41.80885696,14.05422592,1470.776001,12.22206402,0.1303390115,33.16999817,0,0,0,0,0,0,0,0,0,0,0,0,0,0,0,2,1,1,0,1,1,1,0,0
254,162,77,1,1,180,86023,0,85793.14062,90072.61719,99.53025055,0,0,0,9.777003288,0.06173507124,-1.166512489,0.005570554174,0.004971927032,0.001762622967,-27.82222748,-8.299040794,-6.862328529,41.80885315,14.05422688,1470.777954,12.22206402,0.1305260062,33.16999817,0,0,0,0,0,0,0,0,0,0,0,0,0,0,0,2,1,1,0,1,1,1,0,0
254,162,78,1,1,180,86273,0,85794.48438,90092.77344,99.63149261,0,0,0,9.786972046,0.05230062455,-1.16040802,-0.005587182008,0.003475360107,0.002793591237,-28.68178368,-8.157366753,-6.792566776,41.80885315,14.05422688,1470.741943,12.22206402,0.1305260062,33.16999817,0,0,0,0,0,0,0,0,0,0,0,0,0,0,0,2,1,1,0,1,1,1,0,0
254,162,79,1,1,180,86523,0,85791.63281,90082.70312,99.63106537,0,0,0,9.759896278,0.04885634407,-1.162641287,0.0006152550923,0.005886496045,0.001030968153,-28.96130753,-8.157364845,-6.653000832,41.80884933,14.05422878,1470.686035,12.221385,0.1305260062,33.16999817,0,0,0,0,0,0,0,0,0,0,0,0,0,0,0,2,1,1,0,1,1,1,0,0
254,162,80,1,1,180,86773,0,85795.19531,90082.70312,98.82285309,0,0,0,9.762275696,0.05784150213,-1.152665496,0.008264373988,0.00335896085,0.001163996407,-28.30659676,-7.874013901,-6.932132721,41.80884933,14.05423069,1470.678955,12.221385,0.1303390115,33.16999817,0,0,0,0,0,0,0,0,0,0,0,0,0,0,0,2,1,1,0,1,1,1,0,0
254,162,81,1,1,180,87023,0,85794.85938,90092.77344,99.327034,0,0,0,9.791733742,0.05918927863,-1.153112292,0.01045933645,0.005420897156,0.002327992581,-28.29289818,-7.874015331,-6.722763538,41.80884933,14.05423164,1470.677002,12.221385,0.1305260062,33.16999817,0,0,0,0,0,0,0,0,0,0,0,0,0,0,0,2,1,1,0,1,1,1,0,0
254,162,82,1,1,180,87273,0,85792.46875,90092.77344,99.53122711,0,0,0,9.775132179,0.07382638752,-1.140418291,0.009097407572,0.005818908103,0.0001716492116,-27.9144001,-8.015687943,-6.722782612,41.80884933,14.05423164,1470.686035,12.221385,0.1303390115,33.18000031,0,0,0,0,0,0,0,0,0,0,0,0,0,0,0,2,1,1,0,1,1,1,0,0
254,162,83,1,1,180,87524,0,85791.74219,90092.77344,98.71902466,0,0,0,9.768969536,0.009022040293,-1.154601216,0.001795880031,0.00542089669,0.0009311970207,-28.00639725,-8.086527824,-6.513474941,41.80884933,14.05423355,1470.728027,12.22049904,0.1303390115,33.18000031,0,0,0,0,0,0,0,0,0,0,0,0,0,0,0,2,1,1,0,1,1,1,0,0
254,162,84,1,1,180,87774,0,85791.72656,90092.77344,99.53031158,0,0,0,9.786229134,0.03972142935,-1.154154778,8.314256411e-05,0.005088326521,0.001180624706,-28.49419975,-8.369878769,-7.001876831,41.80884933,14.05423355,1470.764038,12.22049904,0.1305260062,33.18000031,0,0,0,0,0,0,0,0,0,0,0,0,0,0,0,2,1,1,0,1,1,1,0,0
254,162,85,1,1,180,88024,0,85792.71094,90092.77344,99.32775116,0,0,0,9.779532433,0.06323260069,-1.123036146,-0.01079190895,0.004739128053,0.001496566692,-28.49759674,-8.086527824,-6.72284174,41.80884933,14.05423546,1470.755981,12.22049904,0.1303390115,33.18000031,0,0,0,0,0,0,0,0,0,0,0,0,0,0,0,2,1,1,0,1,1,1,0,0
254,162,86,1,1,180,88274,0,85793.6875,90082.70312,99.53201294,0,0,0,9.777451515,0.05095288157,-1.168596983,-0.003525245935,0.004739127588,0.001297024311,-28.78760338,-8.299041748,-6.653096676,41.80884552,14.05423546,1470.675049,12.22049904,0.1305260062,33.18000031,0,0,0,0,0,0,0,0,0,0,0,0,0,0,0,2,1,1,0,1,1,1,0,0
254,162,87,1,1,180,88524,0,85794.64062,90092.77344,99.12583923,0,0,0,9.778788567,0.07012119144,-1.16398108,0.01370189991,0.005420897156,0.001762623084,-28.40554237,-8.157365799,-6.932152748,41.80884552,14.05423641,1470.589966,12.22110271,0.1307130009,33.18999863,0,0,0,0,0,0,0,0,0,0,0,0,0,0,0,2,1,1,0,1,1,1,0,0
254,162,88,1,1,180,88774,0,85792.0625,90092.77344,99.630867,0,0,0,9.783252716,0.03238354623,-1.16040802,-0.00119725347,0.005188098177,0.001097482396,-28.4124012,-8.015688896,-6.932190418,41.80884552,14.05423641,1470.527954,12.22110271,0.1305260062,33.18999863,0,0,0,0,0,0,0,0,0,0,0,0,0,0,0,2,1,1,0,1,1,1,0,0
254,162,89,1,1,180,89024,0,85792.71875,90092.77344,99.63117218,0,0,0,9.771648407,0.02459637821,-1.149985671,-0.005786724389,0.003741416847,0.0006485122722,-28.78415489,-8.228203773,-6.722840786,41.80884171,14.05423832,1470.457031,12.22110271,0.1305260062,33.18999863,0,0,0,0,0,0,0,0,0,0,0,0,0,0,0,2,1,1,0,1,1,1,0,0
254,162,90,1,1,180,89274,0,85792.32812,90092.77344,99.52990723,0,0,0,9.760638237,0.08060388267,-1.127056479,0.004922040738,0.005221355241,0.0007649119361,-28.30656815,-8.299041748,-6.583312988,41.80884171,14.05424023,1470.390991,12.22110271,0.1305260062,33.18999863,0,0,0,0,0,0,0,0,0,0,0,0,0,0,0,2,1,1,0,1,1,1,0,0
254,162,91,1,1,180,89524,0,85791.25781,90092.77344,99.53054047,0,0,0,9.78121376,0.09974955767,-1.140492797,0.003241050057,0.005176004488,0.00125772052,-28.02688217,-8.440718651,-6.792644024,41.80884171,14.05424023,1470.333008,12.22071266,0.1305260062,33.18999863,0,0,0,0,0,0,0,0,0,0,0,0,0,0,0,2,1,1,0,1,1,1,0,0
254,162,92,1,1,180,89774,0,85796.16406,90092.77344,99.43039703,0,0,0,9.765922546,0.07056141645,-1.139770865,0.000902978878,0.005562996492,0.003257174045,-28.50105476,-8.01568985,-6.932151794,41.80883789,14.05424118,1470.362061,12.22071266,0.1307130009,33.18999863,0,0,0,0,0,0,0,0,0,0,0,0,0,0,0,2,1,1,0,1,1,1,0,0
254,162,93,1,1,180,90024,0,85790.19531,90092.77344,99.63175201,0,0,0,9.769120216,0.06547889113,-1.137925267,0.01371852867,0.004256899934,0.002377878409,-28.21451378,-8.299041748,-7.141443729,41.80883789,14.05424309,1470.29895,12.22071266,0.1305260062,33.20000076,0,0,0,0,0,0,0,0,0,0,0,0,0,0,0,2,1,1,0,1,1,1,0,0
254,162,94,1,1,180,90274,0,85794.44531,90082.70312,99.42714691,0,0,0,9.766292572,0.05709274113,-1.137925506,0.004439814482,0.005504039582,0.001612966531,-28.40895844,-8.440719604,-6.653115749,41.80883408,14.054245,1470.323975,12.22071266,0.1305260062,33.20000076,0,0,0,0,0,0,0,0,0,0,0,0,0,0,0,2,1,1,0,1,1,1,0,0
254,162,95,1,1,180,90524,0,85792.14844,90092.77344,99.22666931,0,0,0,9.788161278,0.05514595658,-1.172468185,0.008098088205,0.005138212349,0.001829137211,-28.59657097,-7.909432888,-6.687978745,41.80883408,14.054245,1470.271973,12.22106457,0.1307130009,33.20000076,0,0,0,0,0,0,0,0,0,0,0,0,0,0,0,2,1,1,0,1,1,1,0,0
254,162,96,1,1,180,90774,0,85793.25781,90082.70312,99.52959442,0,0,0,9.754382133,0.05589471757,-1.153053522,0.004337524064,0.005240503233,0.002015578561,-28.23164368,-8.228205681,-6.792722225,41.80883026,14.05424595,1470.187012,12.22106457,0.1303390115,33.20000076,0,0,0,0,0,0,0,0,0,0,0,0,0,0,0,2,1,1,0,1,1,1,0,0
254,162,97,1,1,180,91024,0,85791.89844,90082.70312,99.42935181,0,0,0,9.769674301,0.05284520239,-1.126054764,-0.0005159878056,0.004063405097,0.0008384804823,-28.13266373,-8.369882584,-6.653173447,41.80883026,14.05424786,1470.079956,12.22106457,0.1305260062,33.20000076,0,0,0,0,0,0,0,0,0,0,0,0,0,0,0,2,1,1,0,1,1,1,0,0
254,162,98,1,1,180,91274,0,85794.07812,90092.77344,99.53001404,0,0,0,9.778641701,0.0437647216,-1.14551878,-0.001762622735,0.006185809616,0.0008314260049,-28.13607025,-8.01568985,-6.583428383,41.80883026,14.05424786,1469.974976,12.22106457,0.1305260062,33.20999908,0,0,0,0,0,0,0,0,0,0,0,0,0,0,0,2,1,1,0,1,1,1,0,0
254,162,99,1,1,180,91524,0,85794.71875,90092.77344,99.52946472,0,0,0,9.776855469,0.05484645069,-1.153112531,0.0009644540842,0.004456442315,0.002261478454,-28.22821808,-8.01568985,-7.00199604,41.80883026,14.05424976,1469.853027,12.22019482,0.1305260062,33.20999908,0,0,0,0,0,0,0,0,0,0,0,0,0,0,0,2,1,1,0,1,1,1,0,0
254,162,100,1,1,180,91774,0,85793.83594,90082.70312,99.42843628,0,0,0,9.770754814,0.07161875069,-1.118867517,-0.007615861483,0.005553924944,0.00187902234,-28.13270187,-8.157367706,-7.001995564,41.80883026,14.05424976,1469.756958,12.22019482,0.1305260062,33.20999908,0,0,0,0,0,0,0,0,0,0,0,0,0,0,0,2,1,1,0,1,1,1,0,0
254,162,101,1,1,180,92024,0,85794.6875,90092.77344,99.42818451,0,0,0,9.792624474,0.06413111836,-1.141201138,-0.006618150044,0.004822270479,0.0008314259467,-27.94844818,-8.01568985,-6.862506866,41.80883026,14.05424976,1469.651978,12.22019482,0.1305260062,33.20999908,0,0,0,0,0,0,0,0,0,0,0,0,0,0,0,2,1,1,0,1,1,1,0,0
254,162,102,1,1,180,92274,0,85794.11719,90092.77344,99.63011932,0,0,0,9.746951103,0.05859026685,-1.124078631,-0.006950722076,0.004306786694,0.002461020602,-27.94828987,-8.440723419,-7.002037048,41.80883026,14.05424976,1469.541992,12.22019482,0.1305260062,33.20999908,0,0,0,0,0,0,0,0,0,0,0,0,0,0,0,2,1,1,0,1,1,1,0,0
254,162,103,1,1,180,92524,0,85792.09375,90082.70312,99.53014374,0,0,0,9.773733139,0.0608365275,-1.12765193,-0.0127208177,0.004888784606,0.00162959483,-28.32717323,-8.228205681,-6.862485886,41.80883026,14.05425167,1469.420044,12.22057247,0.1305260062,33.22000122,0,0,0,0,0,0,0,0,0,0,0,0,0,0,0,2,1,1,0,1,1,1,0,0
254,162,104,1,1,180,92774,0,85796.41406,90092.77344,98.82099152,0,0,0,9.759745598,0.07820786536,-1.176041484,-0.008696715347,0.004040730651,0.002028679242,-28.41584587,-8.511558533,-6.583389282,41.80883026,14.05425167,1469.324951,12.22057247,0.1307130009,33.22000122,0,0,0,0,0,0,0,0,0,0,0,0,0,0,0,2,1,1,0,1,1,1,0,0
254,162,105,1,1,180,93024,0,85791.74219,90092.77344,98.92366791,0,0,0,9.762868881,0.05499620363,-1.138669848,-0.000482227013,0.005221354775,0.0009810825577,-28.13613129,-8.582398415,-6.304372311,41.80883026,14.05425262,1469.244019,12.22057247,0.1305260062,33.22000122,0,0,0,0,0,0,0,0,0,0,0,0,0,0,0,2,1,1,0,1,1,1,0,0
254,162,106,1,1,180,93274,0,85793.76562,90092.77344,98.92271423,0,0,0,9.783698082,0.06742567569,-1.154601336,0.006834321655,0.0053211255,0.00350861717,-28.23163414,-8.01568985,-6.792720795,41.80882645,14.05425262,1469.150024,12.22057247,0.1305260062,33.22000122,0,0,0,0,0,0,0,0,0,0,0,0,0,0,0,2,1,1,0,1,1,1,0,0
254,162,107,1,1,180,93524,0,85793.47656,90092.77344,99.02445984,0,0,0,9.753050804,0.0975259617,-1.153856635,-0.003458732041,0.004256900866,0.002228221623,-28.22818565,-8.299043655,-6.583408356,41.80882645,14.05425453,1469.05896,12.21972752,0.1303390115,33.22000122,0,0,0,0,0,0,0,0,0,0,0,0,0,0,0,2,1,1,0,1,1,1,0,0
254,162,108,1,1,180,93774,0,85793.10156,90082.70312,98.92302704,0,0,0,9.76376152,0.09123635292,-1.137776136,-0.006152551621,0.004805641249,0.001928908285,-27.84596825,-8.086527824,-6.722938538,41.80882645,14.05425453,1468.984009,12.21972752,0.1305260062,33.22999954,0,0,0,0,0,0,0,0,0,0,0,0,0,0,0,2,1,1,0,1,1,1,0,0
254,162,109,1,1,180,94024,0,85790.92969,90082.70312,98.82200623,0,0,0,9.76123333,0.07116945833,-1.149092197,0.002361249644,0.004655985627,0.002344621113,-28.05080414,-8.29904747,-6.583485126,41.80882645,14.05425644,1468.890991,12.21972752,0.1305260062,33.22000122,0,0,0,0,0,0,0,0,0,0,0,0,0,0,0,2,1,1,0,1,1,1,0,0
254,162,110,1,1,180,94274,0,85791.24219,90092.77344,99.02459717,0,0,0,9.77536869,0.07221776247,-1.156536937,0.005171469413,0.00508832559,0.001995422412,-28.62413025,-8.01568985,-7.071840763,41.80882263,14.05425644,1468.839966,12.21972752,0.1305260062,33.22999954,0,0,0,0,0,0,0,0,0,0,0,0,0,0,0,2,1,1,0,1,1,1,0,0
254,162,111,1,1,180,94524,0,85792.98438,90082.70312,98.92288971,0,0,0,9.76540184,0.03717557341,-1.133458495,0.005204726011,0.005420897156,0.0006983978674,-28.63102531,-8.511568069,-6.583522797,41.80882263,14.05425644,1468.766968,12.21916485,0.1305260062,33.22999954,0,0,0,0,0,0,0,0,0,0,0,0,0,0,0,2,1,1,0,1,1,1,0,0
254,162,112,1,1,180,94774,0,85794.21875,90092.77344,99.02389526,0,0,0,9.774624825,0.04900609329,-1.131076455,0.0006318836822,0.004905412439,0.001180624706,-27.94842911,-8.299045563,-7.071800232,41.80882263,14.05425739,1468.685059,12.21916485,0.1305260062,33.22999954,0,0,0,0,0,0,0,0,0,0,0,0,0,0,0,2,1,1,0,1,1,1,0,0
254,162,113,1,1,180,95024,0,85791.80469,90092.77344,98.92240143,0,0,0,9.76837635,0.06622765213,-1.145518899,0.003691531252,0.005504040048,0.002145078732,-28.32718849,-7.944850922,-6.862485886,41.80882263,14.05425739,1468.604004,12.21916485,0.1303390115,33.24000168,0,0,0,0,0,0,0,0,0,0,0,0,0,0,0,2,1,1,0,1,1,1,0,0
254,162,114,1,1,180,95274,0,85795.41406,90092.77344,98.82172394,0,0,0,9.769863129,0.04481298849,-1.118271708,0.006368723698,0.003724788548,0.002211592859,-28.71278191,-8.157367706,-6.792741776,41.80882263,14.05425739,1468.541016,12.21916485,0.1305260062,33.24000168,0,0,0,0,0,0,0,0,0,0,0,0,0,0,0,2,1,1,0,1,1,1,0,0
254,162,115,1,1,180,95524,0,85789.22656,90092.77344,98.92484283,0,0,0,9.762276649,0.06712614,-1.143434405,-0.005703581963,0.005653696135,0.0004988556611,-27.90063477,-8.546984673,-6.164856911,41.80882263,14.05425739,1468.442993,12.21838951,0.1305260062,33.24000168,0,0,0,0,0,0,0,0,0,0,0,0,0,0,0,2,1,1,0,1,1,1,0,0
254,162,116,1,1,180,95774,0,85791.36719,90082.70312,99.02451324,0,0,0,9.781319618,0.05499617383,-1.12512064,-0.006435235962,0.005138211418,0.00204530824,-28.15321159,-8.228208542,-6.583524227,41.80882263,14.05425739,1468.380981,12.21838951,0.1305260062,33.24000168,0,0,0,0,0,0,0,0,0,0,0,0,0,0,0,2,1,1,0,1,1,1,0,0
254,162,117,1,1,180,96024,0,85795.875,90102.84375,98.82029724,0,0,0,9.782806396,0.05859023705,-1.136734247,-0.002361249179,0.005653695203,0.002294735517,-28.3374424,-8.299046516,-7.071840286,41.80882263,14.05425739,1468.327026,12.21838951,0.1305260062,33.24000168,0,0,0,0,0,0,0,0,0,0,0,0,0,0,0,2,1,1,0,1,1,1,0,0
254,162,118,1,1,180,96274,0,85795.03125,90092.77344,98.92404938,0,0,0,9.772060394,0.03332551941,-1.135192394,0.001373193809,0.005784579553,0.003227005247,-28.43301582,-8.086529732,-6.792780399,41.80882263,14.0542593,1468.260986,12.21838951,0.1305260062,33.24000168,0,0,0,0,0,0,0,0,0,0,0,0,0,0,0,2,1,1,0,1,1,1,0,0
254,162,119,1,1,180,96524,0,85794.10938,90082.70312,98.92330933,0,0,0,9.786079407,0.06218433008,-1.138372183,0.002776962705,0.005171468947,0.0007981692324,-28.14638138,-8.299046516,-6.932310104,41.80881882,14.0542593,1468.178955,12.21885777,0.1305260062,33.25,0,0,0,0,0,0,0,0,0,0,0,0,0,0,0,2,1,1,0,1,1,1,0,0
254,162,120,1,1,180,96774,0,85792.19531,90092.77344,98.7205658,0,0,0,9.765844345,0.06218430027,-1.137776494,-0.0008813115419,0.004389928654,0.002311364515,-28.05762482,-8.29904747,-6.932349205,41.80881882,14.0542593,1468.105957,12.21885777,0.1307130009,33.25,0,0,0,0,0,0,0,0,0,0,0,0,0,0,0,2,1,1,0,1,1,1,0,0
254,162,121,1,1,180,97024,0,85791.6875,90092.77344,98.82176208,0,0,0,9.765400887,0.07236751169,-1.155047655,-0.001745994436,0.005088326987,0.002311363816,-28.81869125,-8.511565208,-6.5835042,41.80881882,14.05426121,1468.079956,12.21885777,0.1303390115,33.25,0,0,0,0,0,0,0,0,0,0,0,0,0,0,0,2,1,1,0,1,1,1,0,0
254,162,122,1,1,180,97274,0,85792.6875,90092.77344,98.92287445,0,0,0,9.76495266,0.07820786536,-1.140754342,0.008596945554,0.004073986784,0.002560792025,-28.44676781,-8.086529732,-6.653327465,41.80881882,14.05426121,1468.098022,12.21885777,0.1303390115,33.25,0,0,0,0,0,0,0,0,0,0,0,0,0,0,0,2,1,1,0,1,1,1,0,0
254,162,123,1,1,180,97524,0,85794.89844,90102.84375,98.82100677,0,0,0,9.76607132,0.04569214955,-1.131196499,0.0009097409202,0.00444571441,0.003329995088,-28.43646049,-8.440725327,-6.862565041,41.808815,14.05426216,1468.097046,12.21833897,0.1305260062,33.25,0,0,0,0,0,0,0,0,0,0,0,0,0,0,0,2,1,1,0,1,1,1,0,0
254,162,124,1,1,180,97774,0,85793.10156,90072.61719,98.92302704,0,0,0,9.782213211,0.07281674445,-1.151176691,0.002976504853,0.005387640558,0.003674902953,-28.07137489,-8.440730095,-6.653366089,41.808815,14.05426216,1468.064941,12.21833897,0.1305260062,33.25,0,0,0,0,0,0,0,0,0,0,0,0,0,0,0,2,1,1,0,1,1,1,0,0
254,162,125,1,1,180,98024,0,85792.49219,90082.70312,98.82044983,0,0,0,9.770757675,0.05514592677,-1.148198962,-0.0001496566547,0.004938669503,0.00219496456,-28.35461807,-8.086529732,-7.002175808,41.808815,14.05426216,1468.052979,12.21833897,0.1305260062,33.25999832,0,0,0,0,0,0,0,0,0,0,0,0,0,0,0,2,1,1,0,1,1,1,0,0
254,162,126,1,1,180,98274,0,85794.58594,90102.84375,98.92388153,0,0,0,9.778046608,0.05694298819,-1.145072341,0.0009478254942,0.005237983074,0.002477649134,-28.42615318,-8.440723419,-6.86250639,41.808815,14.05426216,1468.017944,12.21833897,0.1303390115,33.25999832,0,0,0,0,0,0,0,0,0,0,0,0,0,0,0,2,1,1,0,1,1,1,0,0
254,162,127,1,1,180,98524,0,85792.44531,90092.77344,98.92333221,0,0,0,9.77385807,0.05052178726,-1.126776814,0.0006127356319,0.005691992119,0.002338070422,-27.77441025,-8.228209496,-6.792839527,41.808815,14.05426216,1468.030029,12.2180872,0.1305260062,33.25999832,0,0,0,0,0,0,0,0,0,0,0,0,0,0,0,2,1,1,0,1,1,1,0,0
254,162,128,1,1,180,98774,0,85795.48438,90072.61719,98.92299652,0,0,0,9.782361031,0.07431426644,-1.138967633,-0.001297024428,0.005071698222,9.977116133e-05,-28.45026779,-7.944850445,-6.862643242,41.808815,14.05426407,1468.011963,12.2180872,0.1305260062,33.25999832,0,0,0,0,0,0,0,0,0,0,0,0,0,0,0,2,1,1,0,1,1,1,0,0
254,162,129,1,1,180,99024,0,85792.59375,90092.77344,99.02466583,0,0,0,9.7739048,0.05094804987,-1.153789282,0.003707623342,0.00487483805,0.00235159439,-28.64138031,-7.874010563,-6.932411194,41.808815,14.05426407,1467.967041,12.2180872,0.1305260062,33.25999832,0,0,0,0,0,0,0,0,0,0,0,0,0,0,0,2,1,1,0,1,1,1,0,0
254,162,130,1,1,180,99274,0,85793.1875,90092.77344,98.92332458,0,0,0,9.769863129,0.04646027088,-1.132267714,0.004323414993,0.005420897622,0.00191227952,-28.26255608,-8.157371521,-6.723130226,41.80881119,14.05426407,1467.946045,12.2180872,0.1305260062,33.27000046,0,0,0,0,0,0,0,0,0,0,0,0,0,0,0,2,1,1,0,1,1,1,0,0
254,162,131,1,1,180,99524,0,85792.92969,90092.77344,98.92047882,0,0,0,9.760044098,0.05409768596,-1.143285513,0.0005986266187,0.005104955751,0.001779251499,-28.45705605,-8.228209496,-6.792917728,41.80881119,14.05426598,1467.946045,12.21736622,0.1303390115,33.27000046,0,0,0,0,0,0,0,0,0,0,0,0,0,0,0,2,1,1,0,1,1,1,0,0
254,162,132,1,1,180,99774,0,85793.74219,90102.84375,98.92272949,0,0,0,9.755283356,0.05020411685,-1.154303432,0.003558502533,0.005454154219,0.0007482833462,-28.65517998,-7.944849491,-6.792955875,41.80881119,14.05426598,1467.944946,12.21736622,0.1305260062,33.27000046,0,0,0,0,0,0,0,0,0,0,0,0,0,0,0,2,1,1,0,1,1,1,0,0
254,162,133,1,1,180,100024,0,85790.64844,90092.77344,98.82275391,0,0,0,9.759005547,0.04616076499,-1.147454262,0.003658274654,0.003159418702,0.002095193369,-28.24875641,-8.157367706,-6.792820454,41.80881119,14.05426693,1467.918945,12.21736622,0.1305260062,33.27000046,0,0,0,0,0,0,0,0,0,0,0,0,0,0,0,2,1,1,0,1,1,1,0,0
254,162,134,1,1,180,100274,0,85797.78125,90102.84375,98.82189178,0,0,0,9.770160675,0.05739218369,-1.129140615,0.004406557884,0.004722499289,0.0004157129151,-28.45024872,-8.015688896,-7.071942806,41.80881119,14.05426693,1467.900024,12.21736622,0.1303390115,33.27999878,0,0,0,0,0,0,0,0,0,0,0,0,0,0,0,2,1,1,0,1,1,1,0,0
254,162,135,1,1,180,100524,0,85794.29688,90092.77344,98.92238617,0,0,0,9.764356613,0.0705704838,-1.129289627,0.0008813114837,0.005287868436,0.001962165348,-28.19753838,-8.015688896,-6.5835042,41.80881119,14.05426884,1467.912964,12.21668148,0.1305260062,33.27000046,0,0,0,0,0,0,0,0,0,0,0,0,0,0,0,2,1,1,0,1,1,1,0,0
254,162,136,1,1,180,100774,0,85793.71094,90092.77344,98.92274475,0,0,0,9.776111603,0.06667691469,-1.140903115,0.0001330281084,0.003708159784,0.001912279753,-27.97571182,-8.015688896,-6.792897701,41.80881119,14.05427074,1467.910034,12.21668148,0.1305260062,33.27999878,0,0,0,0,0,0,0,0,0,0,0,0,0,0,0,2,1,1,0,1,1,1,0,0
254,162,137,1,1,180,101024,0,85795.01562,90082.70312,98.82187653,0,0,0,9.766499519,0.06707627326,-1.156374454,0.00333779701,0.004998633638,0.001902705291,-28.6448288,-8.299049377,-6.304537296,41.80881119,14.05427074,1467.920044,12.21668148,0.1305260062,33.27000046,0,0,0,0,0,0,0,0,0,0,0,0,0,0,0,2,1,1,0,1,1,1,0,0
